timestamp,timestamp_sample,ref_timestamp,ref_lat,ref_lon,x,y,z,delta_xy[0],delta_xy[1],delta_z,vx,vy,vz,z_deriv,delta_vxy[0],delta_vxy[1],delta_vz,ax,ay,az,heading,delta_heading,ref_alt,dist_bottom,eph,epv,evh,evv,vxy_max,vz_max,hagl_min,hagl_max,xy_valid,z_valid,v_xy_valid,v_z_valid,xy_reset_counter,z_reset_counter,vxy_reset_counter,vz_reset_counter,heading_reset_counter,heading_good_for_control,xy_global,z_global,dist_bottom_valid,dist_bottom_sensor_bitfield,dead_reckoning
185891877,185890800,20718320,41.1790497,-8.603618899999999,-0.7458493,0.89509946,2.0362027,-0.00045489697,0.0003034392,-2.4914742e-05,0.013307977,0.015631955,0.018386334,0.0078411875,0.015570171,0.0037364298,0.008197296,-0.050867315,0.4343152,-0.5148699,-1.8114696,-0.010098422,113.10937,0.094732046,0.3650482,0.30801338,0.14269724,0.097622454,inf,inf,inf,inf,1,1,1,1,2,2,2,2,2,0,1,1,0,0,0
185901889,185900795,20718320,41.1790497,-8.603618899999999,-0.7457289,0.8953097,2.0360856,-0.00045489697,0.0003034392,-2.4914742e-05,0.013018759,0.013311853,0.017559795,0.0068424465,0.015570171,0.0037364298,0.008197296,-0.4182738,-0.31495225,0.34667635,-1.8115758,-0.010098422,113.10937,0.09278083,0.36588752,0.30749884,0.1431553,0.097630784,inf,inf,inf,inf,1,1,1,1,2,2,2,2,2,0,1,1,0,0,0
186001800,186000743,20718320,41.1790497,-8.603618899999999,-0.7454346,0.8985373,2.03463,-0.00045489697,0.0003034392,-2.4914742e-05,0.013331043,0.01638669,0.018494748,0.005698113,0.015570171,0.0037364298,0.008197296,-0.010732027,0.46141362,-0.2322779,-1.8121034,-0.010098422,113.10937,0.09230757,0.3576753,0.3043322,0.13865933,0.096287444,inf,inf,inf,inf,1,1,1,1,2,2,2,2,2,0,1,1,0,0,0
186091714,186090696,20718320,41.1790497,-8.603618899999999,-0.7451606,0.9013681,2.033581,-0.00045489697,0.0003034392,-2.4914742e-05,0.011111304,0.015293874,0.018345669,0.004187667,0.015570171,0.0037364298,0.008197296,-1.2362231,0.36708438,-0.20227057,-1.812561,-0.010098422,113.10937,0.09316802,0.36501,0.30796197,0.14267154,0.09760841,inf,inf,inf,inf,1,1,1,1,2,2,2,2,2,0,1,1,0,0,0
186201668,186200639,20718320,41.1790497,-8.603618899999999,-0.74451125,0.9056824,2.0324967,-0.00045489697,0.0003034392,-2.4914742e-05,0.013456088,0.013464247,0.021126846,0.005730871,0.015570171,0.0037364298,0.008197296,-0.08353899,0.22680563,0.81362814,-1.812916,-0.010098422,113.10937,0.09410787,0.35764232,0.3042753,0.13863248,0.096271746,inf,inf,inf,inf,1,1,1,1,2,2,2,2,2,0,1,1,0,0,0
186301629,186300587,20718320,41.1790497,-8.603618899999999,-0.74371743,0.90943253,2.0321171,-0.00045489697,0.0003034392,-2.4914742e-05,0.016556831,0.013567461,0.0170189,0.0012539466,0.015570171,0.0037364298,0.008197296,1.0423766,-1.0502173,0.24778804,-1.8131421,-0.010098422,113.10937,0.09672141,0.3658128,0.3085734,0.1430763,0.09777785,inf,inf,inf,inf,1,1,1,1,2,2,2,2,2,0,1,1,0,0,0
186401716,186400535,20718320,41.1790497,-8.603618899999999,-0.74323153,0.9126386,2.0313618,-0.00045489697,0.0003034392,-2.4914742e-05,0.014440381,0.014534902,0.01881335,0.0022885867,0.015570171,0.0037364298,0.008197296,-0.02514235,0.25816965,0.24098456,-1.8136199,-0.010098422,113.10937,0.09365153,0.35761115,0.30422243,0.13860422,0.09625889,inf,inf,inf,inf,1,1,1,1,2,2,2,2,2,0,1,1,0,0,0
186501661,186500483,20718320,41.1790497,-8.603618899999999,-0.7426442,0.9152168,2.0306365,-0.00045489697,0.0003034392,-2.4914742e-05,0.014945324,0.016186437,0.015623372,-0.0015419669,0.015570171,0.0037364298,0.008197296,1.053412,0.07386328,-0.6225701,-1.8139275,-0.010098422,113.10937,0.095370054,0.36577886,0.30852002,0.14305882,0.09776464,inf,inf,inf,inf,1,1,1,1,2,2,2,2,2,0,1,1,0,0,0
186591426,186590437,20718320,41.1790497,-8.603618899999999,-0.7422306,0.91839427,2.0296078,-0.00045489697,0.0003034392,-2.4914742e-05,0.009703224,0.015507594,0.014321229,-0.003718834,0.015570171,0.0037364298,0.008197296,-1.0288202,-0.19157343,-0.37824604,-1.8143897,-0.010098422,113.10937,0.09315324,0.3567918,0.30352238,0.13812824,0.09606309,inf,inf,inf,inf,1,1,1,1,2,2,2,2,2,0,1,1,0,0,0
186701589,186700380,20718320,41.1790497,-8.603618899999999,-0.74166685,0.92216855,2.028455,-0.00045489697,0.0003034392,-2.4914742e-05,0.011290493,0.01425436,0.015955854,-0.002881393,0.015570171,0.0037364298,0.008197296,-0.2734306,-0.2604702,-0.5224039,-1.8149997,-0.010098422,113.10937,0.09531975,0.36574748,0.30847073,0.14303645,0.09775302,inf,inf,inf,inf,1,1,1,1,2,2,2,2,2,0,1,1,0,0,0
186791414,186790333,20718320,41.1790497,-8.603618899999999,-0.74169624,0.9253586,2.0280142,-0.00045489697,0.0003034392,-2.4914742e-05,0.0132643785,0.013911851,0.016194321,-0.0026905937,0.015570171,0.0037364298,0.008197296,1.0221424,-0.2299859,-0.29737318,-1.8155231,-0.010098422,113.10937,0.09771943,0.3568217,0.30350488,0.13818616,0.09607071,inf,inf,inf,inf,1,1,1,1,2,2,2,2,2,0,1,1,0,0,0
186901620,186900276,20718320,41.1790497,-8.603618899999999,-0.74150586,0.9286304,2.0293891,-0.00045489697,0.0003034392,-2.4914742e-05,0.010750709,0.016122915,0.014414021,-0.002678893,0.015570171,0.0037364298,0.008197296,0.090496935,0.060377117,-0.7906593,-1.8158656,-0.010098422,113.10937,0.10087061,0.3657825,0.3084543,0.14309356,0.097761475,inf,inf,inf,inf,1,1,1,1,2,2,2,2,2,0,1,1,0,0,0
187001410,187000224,20718320,41.1790497,-8.603618899999999,-0.7409167,0.9311755,2.0308118,-0.00045489697,0.0003034392,-2.4914742e-05,0.0110345585,0.013061357,0.015810512,0.0003305009,0.015570171,0.0037364298,0.008197296,-0.5179865,0.38430756,-0.05045853,-1.8161914,-0.010098422,113.10937,0.101397276,0.35764134,0.30414099,0.13868757,0.096262336,inf,inf,inf,inf,1,1,1,1,2,2,2,2,2,0,1,1,0,0,0
187101317,187100172,20718320,41.1790497,-8.603618899999999,-0.74007416,0.9332255,2.0331824,-0.00045489697,0.0003034392,-2.4914742e-05,0.0063799103,0.01467161,0.016062126,0.0029406678,0.015570171,0.0037364298,0.008197296,-1.3607318,0.7227634,-0.67653954,-1.8166168,-0.010098422,113.10937,0.10316229,0.3658156,0.30844027,0.1431478,0.09776899,inf,inf,inf,inf,1,1,1,1,2,2,2,2,2,0,1,1,0,0,0
187201209,187200120,20718320,41.1790497,-8.603618899999999,-0.7407409,0.9350928,2.0346634,-0.00045489697,0.0003034392,-2.4914742e-05,0.01304318,0.0074963067,0.018038047,0.0061125173,0.015570171,0.0037364298,0.008197296,0.5440677,-1.0548527,0.7933629,-1.8169596,-0.010098422,113.10937,0.09860325,0.35761103,0.30410025,0.13865311,0.09625163,inf,inf,inf,inf,1,1,1,1,2,2,2,2,2,0,1,1,0,0,0
187301215,187300068,20718320,41.1790497,-8.603618899999999,-0.7416042,0.93660367,2.035845,-0.00045489697,0.0003034392,-2.4914742e-05,0.011017719,0.01122628,0.019096252,0.007915135,0.015570171,0.0037364298,0.008197296,0.462584,-0.23770867,0.21544579,-1.8173939,-0.010098422,113.10937,0.09870052,0.36578217,0.30839923,0.14311066,0.0977591,inf,inf,inf,inf,1,1,1,1,2,2,2,2,2,0,1,1,0,0,0
187401027,187400016,20718320,41.1790497,-8.603618899999999,-0.74229443,0.9383795,2.036678,-0.00045489697,0.0003034392,-2.4914742e-05,0.0149293495,0.009963395,0.016682545,0.0057659126,0.015570171,0.0037364298,0.008197296,1.7465978,-0.2565536,-0.12121027,-1.817858,-0.010098422,113.10937,0.09825277,0.3575828,0.3040626,0.13861798,0.09624292,inf,inf,inf,inf,1,1,1,1,2,2,2,2,2,0,1,1,0,0,0
187491043,187489969,20718320,41.1790497,-8.603618899999999,-0.7425395,0.93980855,2.0379627,-0.00045489697,0.0003034392,-2.4914742e-05,0.00765877,0.0076526143,0.016597223,0.0064067435,0.015570171,0.0037364298,0.008197296,-0.9549447,-0.27066976,-0.028706472,-1.8183262,-0.010098422,113.10937,0.10110664,0.36491287,0.30769297,0.14263305,0.09756487,inf,inf,inf,inf,1,1,1,1,2,2,2,2,2,0,1,1,0,0,0
187600995,187599912,20718320,41.1790497,-8.603618899999999,-0.7420071,0.94246185,2.0404718,-0.00045489697,0.0003034392,-2.4914742e-05,0.0085901525,0.008939465,0.017719321,0.009201377,0.015570171,0.0037364298,0.008197296,-0.781873,-0.05958568,0.0077420287,-1.8188887,-0.010098422,113.10937,0.101864815,0.35761407,0.30405566,0.13866499,0.09625258,inf,inf,inf,inf,1,1,1,1,2,2,2,2,2,0,1,1,0,0,0
187700895,187699860,20718320,41.1790497,-8.603618899999999,-0.7411332,0.94470716,2.043331,-0.00045489697,0.0003034392,-2.4914742e-05,0.0133794425,0.008649616,0.023134068,0.016447568,0.015570171,0.0037364298,0.008197296,0.40085408,-0.43161583,0.9767768,-1.8193156,-0.010098422,113.10937,0.102660894,0.36578712,0.30835557,0.14313972,0.09775959,inf,inf,inf,inf,1,1,1,1,2,2,2,2,2,0,1,1,0,0,0
187800819,187799809,20718320,41.1790497,-8.603618899999999,-0.7406724,0.9473874,2.0457132,-0.00045489697,0.0003034392,-2.4914742e-05,0.010542111,0.011505532,0.01756635,0.011959382,0.015570171,0.0037364298,0.008197296,-0.28863207,-0.39893225,-0.087271675,-1.8196123,-0.010098422,113.10937,0.10101509,0.35760236,0.30401298,0.13863112,0.09624149,inf,inf,inf,inf,1,1,1,1,2,2,2,2,2,0,1,1,0,0,0
187900888,187899756,20718320,41.1790497,-8.603618899999999,-0.740075,0.9497659,2.0484548,-0.00045489697,0.0003034392,-2.4914742e-05,0.010448287,0.009109544,0.01934664,0.014970159,0.015570171,0.0037364298,0.008197296,-0.03436439,-0.03603182,-0.46715683,-1.8200045,-0.010098422,113.10937,0.10152769,0.36577284,0.3083024,0.14311764,0.097744934,inf,inf,inf,inf,1,1,1,1,2,2,2,2,2,0,1,1,0,0,0
188000683,187999704,20718320,41.1790497,-8.603618899999999,-0.7398679,0.9523266,2.0503342,-0.00045489697,0.0003034392,-2.4914742e-05,0.0113434745,0.010001064,0.02237673,0.018187957,0.015570171,0.0037364298,0.008197296,-0.028543685,-0.10305115,0.22526781,-1.820396,-0.010098422,113.10937,0.09824777,0.35759097,0.3039642,0.13862565,0.09622842,inf,inf,inf,inf,1,1,1,1,2,2,2,2,2,0,1,1,0,0,0
188100693,188099652,20718320,41.1790497,-8.603618899999999,-0.739641,0.9544928,2.051563,-0.00045489697,0.0003034392,-2.4914742e-05,0.011734422,0.006972067,0.023580015,0.018939976,0.015570171,0.0037364298,0.008197296,0.7102094,-0.063746676,0.5214802,-1.8208872,-0.010098422,113.10937,0.09690809,0.36575925,0.30825314,0.14307916,0.097732484,inf,inf,inf,inf,1,1,1,1,2,2,2,2,2,0,1,1,0,0,0
188200728,188199600,20718320,41.1790497,-8.603618899999999,-0.7401165,0.9567304,2.0522566,-0.00045489697,0.0003034392,-2.4914742e-05,0.010169862,0.014627718,0.021063745,0.015485847,0.015570171,0.0037364298,0.008197296,0.57994145,1.2929621,0.72714424,-1.8211228,-0.010098422,113.10937,0.0958817,0.3575798,0.30391896,0.138592,0.09621761,inf,inf,inf,inf,1,1,1,1,2,2,2,2,2,0,1,1,0,0,0
188300575,188299549,20718320,41.1790497,-8.603618899999999,-0.7405465,0.9585908,2.0531118,-0.00045489697,0.0003034392,-2.4914742e-05,0.012892077,0.0022362212,0.020248469,0.01399647,0.015570171,0.0037364298,0.008197296,0.77620596,-2.14667,-1.4854653,-1.8207517,-0.010098422,113.10937,0.09809923,0.36574587,0.3082075,0.14306423,0.09772128,inf,inf,inf,inf,1,1,1,1,2,2,2,2,2,0,1,1,0,0,0
188400646,188399497,20718320,41.1790497,-8.603618899999999,-0.74042314,0.96146625,2.0544722,-0.00045489697,0.0003034392,-2.4914742e-05,0.008507421,0.0085871,0.021209743,0.01475346,0.015570171,0.0037364298,0.008197296,0.49757865,0.15738587,1.584686,-1.8208848,-0.010098422,113.10937,0.098380804,0.35756886,0.303877,0.13858719,0.09620878,inf,inf,inf,inf,1,1,1,1,2,2,2,2,2,0,1,1,0,0,0
188500560,188499445,20718320,41.1790497,-8.603618899999999,-0.73989767,0.96432716,2.0573657,-0.00045489697,0.0003034392,-2.4914742e-05,0.012035299,0.000876064,0.014265065,0.009026867,0.015570171,0.0037364298,0.008197296,1.6366361,-2.2883043,-3.7584527,-1.8205621,-0.010098422,113.10937,0.102039814,0.36573297,0.3081653,0.14304677,0.09771258,inf,inf,inf,inf,1,1,1,1,2,2,2,2,2,0,1,1,0,0,0
188600566,188599393,20718320,41.1790497,-8.603618899999999,-0.7403243,0.9665094,2.0603578,-0.00045489697,0.0003034392,-2.4914742e-05,-0.0024463646,0.011980957,0.031527344,0.027429618,0.015570171,0.0037364298,0.008197296,-2.282914,0.089628376,1.6777035,-1.820547,-0.010098422,113.10937,0.100111485,0.3575745,0.30383834,0.13859859,0.096201256,inf,inf,inf,inf,1,1,1,1,2,2,2,2,2,0,1,1,0,0,0
188700433,188699342,20718320,41.1790497,-8.603618899999999,-0.7408346,0.96819335,2.0637128,-0.00045489697,0.0003034392,-2.4914742e-05,0.0077291857,0.018924486,0.02576041,0.022991024,0.015570171,0.0037364298,0.008197296,-0.7088563,1.4098301,-0.057934724,-1.8199929,-0.010098422,113.10937,0.10126567,0.36573735,0.3081265,0.14300005,0.09770426,inf,inf,inf,inf,1,1,1,1,2,2,2,2,2,0,1,1,0,0,0
188800661,188799289,20718320,41.1790497,-8.603618899999999,-0.7421338,0.970047,2.0650885,-0.00045489697,0.0003034392,-2.4914742e-05,0.014735407,0.023706624,0.032511685,0.029121712,0.015570171,0.0037364298,0.008197296,5.1736917,1.9714525,1.4969136,-1.8192838,-0.010098422,113.10937,0.10041404,0.35763663,0.30383655,0.13861714,0.09621161,inf,inf,inf,inf,1,1,1,1,2,2,2,2,2,0,1,1,0,0,0
188900354,188899237,20718320,41.1790497,-8.603618899999999,-0.7432979,0.9718521,2.066127,-0.00045489697,0.0003034392,-2.4914742e-05,0.009933725,0.0080869775,0.0148927,0.010785669,0.015570171,0.0037364298,0.008197296,5.235249,-1.7668918,1.066755,-1.8182881,-0.010098422,113.10937,0.09937549,0.365805,0.30812594,0.14305514,0.09771702,inf,inf,inf,inf,1,1,1,1,2,2,2,2,2,0,1,1,0,0,0
189000318,188999186,20718320,41.1790497,-8.603618899999999,-0.7450625,0.97560894,2.06545,-0.00045489697,0.0003034392,-2.4914742e-05,-0.016220452,0.024480226,0.018236715,0.012517427,0.015570171,0.0037364298,0.008197296,-0.8386943,-0.9241634,1.4953767,-1.8159312,-0.010098422,113.10937,0.100052595,0.3575816,0.30378065,0.1385715,0.09618992,inf,inf,inf,inf,1,1,1,1,2,2,2,2,2,0,1,1,0,0,0
189100240,189099133,20718320,41.1790497,-8.603618899999999,-0.7486767,0.98080176,2.063874,-0.00045489697,0.0003034392,-2.4914742e-05,-0.032914028,0.038116433,0.0046187495,-0.002574715,0.015570171,0.0037364298,0.008197296,1.5224025,1.2929844,2.4960964,-1.8122828,-0.010098422,113.10937,0.10162854,0.3657429,0.3080686,0.14302556,0.0976932,inf,inf,inf,inf,1,1,1,1,2,2,2,2,2,0,1,1,0,0,0
189200191,189199081,20718320,41.1790497,-8.603618899999999,-0.75564724,0.98637193,2.05878,-0.00045489697,0.0003034392,-2.4914742e-05,-0.078926034,0.057790335,-0.010233675,-0.020589769,0.015570171,0.0037364298,0.008197296,-4.0532274,1.4311745,0.23096795,-1.8095351,-0.010098422,113.10937,0.10672259,0.35760325,0.30375564,0.13860935,0.096184835,inf,inf,inf,inf,1,1,1,1,2,2,2,2,2,0,1,1,0,0,0
189300089,189299038,20718320,41.1790497,-8.603618899999999,-0.765181,0.9931852,2.052643,-0.00045489697,0.0003034392,-2.4914742e-05,-0.089048,0.074385755,-0.0072111045,-0.020534962,0.015570171,0.0037364298,0.008197296,-0.88731515,1.1091942,0.5675972,-1.8120099,-0.010098422,113.10937,0.11285949,0.36576685,0.30804363,0.14315419,0.09769092,inf,inf,inf,inf,1,1,1,1,2,2,2,2,2,0,1,1,0,0,0
189399998,189398977,20718320,41.1790497,-8.603618899999999,-0.7773126,1.0012604,2.0462887,-0.00045489697,0.0003034392,-2.4914742e-05,-0.100372106,0.079747394,-0.028387455,-0.044356704,0.015570171,0.0037364298,0.008197296,0.16503751,0.3050091,1.2461189,-1.825481,-0.010098422,113.10937,0.11921382,0.35762185,0.30373898,0.13865587,0.09619075,inf,inf,inf,inf,1,1,1,1,2,2,2,2,2,0,1,1,0,0,0
189499955,189498925,20718320,41.1790497,-8.603618899999999,-0.7898175,1.0113897,2.0390203,-0.00045489697,0.0003034392,-2.4914742e-05,-0.1150357,0.119368844,-0.03898222,-0.057239037,0.015570171,0.0037364298,0.008197296,-0.63595796,-1.2575275,-1.7679846,-1.8526458,-0.010098422,113.10937,0.12648225,0.3657856,0.3080272,0.1432406,0.097724326,inf,inf,inf,inf,1,1,1,1,2,2,2,2,2,0,1,1,0,0,0
189599915,189598873,20718320,41.1790497,-8.603618899999999,-0.80916977,1.0308652,2.0271144,-0.00045489697,0.0003034392,-2.4914742e-05,-0.19863078,0.24541172,-0.103043005,-0.124546126,0.015570171,0.0037364298,0.008197296,-1.9616264,3.8928947,0.7749036,-1.8706557,-0.010098422,113.10937,0.13838816,0.3577117,0.303742,0.13890935,0.09627157,inf,inf,inf,inf,1,1,1,1,2,2,2,2,2,0,1,1,0,0,0
189699874,189698821,20718320,41.1790497,-8.603618899999999,-0.83609575,1.0617436,2.0069873,-0.00045489697,0.0003034392,-2.4914742e-05,-0.2678728,0.34991217,-0.19200295,-0.2173913,0.015570171,0.0037364298,0.008197296,2.0823305,-0.24310248,-0.36460808,-1.8668292,-0.010098422,113.10937,0.15851521,0.36588675,0.3080213,0.1437192,0.09775703,inf,inf,inf,inf,1,1,1,1,2,2,2,2,2,0,1,1,0,0,0
189799826,189798769,20718320,41.1790497,-8.603618899999999,-0.86338216,1.0968015,1.973533,-0.00045489697,0.0003034392,-2.4914742e-05,-0.34002918,0.447758,-0.34333098,-0.37233275,0.015570171,0.0037364298,0.008197296,-4.572648,1.4810232,-2.3274589,-1.843877,-0.010098422,113.10937,0.19196951,0.35773844,0.3037087,0.13969795,0.096222125,inf,inf,inf,inf,1,1,1,1,2,2,2,2,2,0,1,1,0,0,0
189899732,189898717,20718320,41.1790497,-8.603618899999999,-0.892745,1.1386334,1.9254998,-0.00045489697,0.0003034392,-2.4914742e-05,-0.35173678,0.5075711,-0.49873507,-0.53051955,0.015570171,0.0037364298,0.008197296,-4.4891586,1.2657591,-2.7593658,-1.8135691,-0.010098422,113.10937,0.24000275,0.36593726,0.30798668,0.14518966,0.09769479,inf,inf,inf,inf,1,1,1,1,2,2,2,2,2,0,1,1,0,0,0
189999770,189998665,20718320,41.1790497,-8.603618899999999,-0.9298191,1.179311,1.8660148,-0.00045489697,0.0003034392,-2.4914742e-05,-0.40670612,0.51045364,-0.6873233,-0.7165232,0.015570171,0.0037364298,0.008197296,-5.5990295,-2.3867373,0.4360878,-1.7835497,-0.010098422,113.10937,0.2994877,0.35776553,0.30367696,0.14124279,0.09617333,inf,inf,inf,inf,1,1,1,1,2,2,2,2,2,0,1,1,0,0,0
190099691,190098613,20718320,41.1790497,-8.603618899999999,-0.9725908,1.2206339,1.7893575,-0.00045489697,0.0003034392,-2.4914742e-05,-0.44520974,0.51395386,-0.8915502,-0.91721475,0.015570171,0.0037364298,0.008197296,-1.031432,-2.2469442,-2.2916713,-1.752803,-0.010098422,113.10937,0.376145,0.3660006,0.30795357,0.14685796,0.09766865,inf,inf,inf,inf,1,1,1,1,2,2,2,2,2,0,1,1,0,0,0
190199686,190198562,20718320,41.1790497,-8.603618899999999,-1.0193769,1.259294,1.6966249,-0.00045489697,0.0003034392,-2.4914742e-05,-0.46024066,0.50916386,-1.0704093,-1.0893422,0.015570171,0.0037364298,0.008197296,-2.1518517,0.59321356,-2.543435,-1.7191111,-0.010098422,113.10937,0.46887767,0.35779855,0.30364668,0.14296061,0.096161656,inf,inf,inf,inf,1,1,1,1,2,2,2,2,2,0,1,1,0,0,0
190299604,190298511,20718320,41.1790497,-8.603618899999999,-1.0672989,1.2977651,1.5873089,-0.00045489697,0.0003034392,-2.4914742e-05,-0.44762206,0.4864937,-1.1922514,-1.2053841,0.015570171,0.0037364298,0.008197296,2.1999702,0.37744573,-1.0125241,-1.6839235,-0.010098422,113.10937,0.57819366,0.36607614,0.3079221,0.14854415,0.09767334,inf,inf,inf,inf,1,1,1,1,2,2,2,2,2,0,1,1,0,0,0
190399679,190398457,20718320,41.1790497,-8.603618899999999,-1.1154257,1.3398288,1.4743388,-0.00045489697,0.0003034392,-2.4914742e-05,-0.46684992,0.4452557,-1.2832991,-1.284148,0.015570171,0.0037364298,0.008197296,-2.7754989,-2.0017285,0.14949316,-1.6480078,-0.010098422,113.10937,0.6911638,0.35791722,0.30365154,0.14400722,0.09619248,inf,inf,inf,inf,1,1,1,1,2,2,2,2,2,0,1,1,0,0,0
190499474,190498406,20718320,41.1790497,-8.603618899999999,-1.1616493,1.3805288,1.3537756,-0.00045489697,0.0003034392,-2.4914742e-05,-0.4373525,0.427756,-1.3170503,-1.3094094,0.015570171,0.0037364298,0.008197296,0.821806,1.7258514,-2.0857282,-1.6126411,-0.010098422,113.10937,0.8117269,0.36622807,0.3079271,0.14922653,0.09772044,inf,inf,inf,inf,1,1,1,1,2,2,2,2,2,0,1,1,0,0,0
190599507,190598353,20718320,41.1790497,-8.603618899999999,-1.2070918,1.4180369,1.2320517,-0.00045489697,0.0003034392,-2.4914742e-05,-0.40507436,0.3803491,-1.3377832,-1.3204387,0.015570171,0.0037364298,0.008197296,3.213746,-0.56548536,-0.91116935,-1.5764778,-0.010098422,113.10937,0.9334508,0.35798243,0.3036347,0.1441538,0.09623503,inf,inf,inf,inf,1,1,1,1,2,2,2,2,2,0,1,1,0,0,0
190699497,190698302,20718320,41.1790497,-8.603618899999999,-1.2495464,1.4514794,1.1053336,-0.00045489697,0.0003034392,-2.4914742e-05,-0.40317026,0.32376492,-1.3729118,-1.3494399,0.015570171,0.0037364298,0.008197296,-3.7214339,-1.6033977,-0.5602918,-1.5409881,-0.010098422,113.10937,1.060169,0.3662935,0.30790934,0.14900859,0.09775776,inf,inf,inf,inf,1,1,1,1,2,2,2,2,2,0,1,1,0,0,0
190799274,190798250,20718320,41.1790497,-8.603618899999999,-1.293851,1.481062,0.9735556,-0.00045489697,0.0003034392,-2.4914742e-05,-0.36747813,0.2698674,-1.4232094,-1.3958077,0.015570171,0.0037364298,0.008197296,2.4330225,0.9180491,-0.9322843,-1.5039017,-0.010098422,113.10937,1.191947,0.3581208,0.3036458,0.14435169,0.09630168,inf,inf,inf,inf,1,1,1,1,2,2,2,2,2,0,1,1,0,0,0
190899267,190898198,20718320,41.1790497,-8.603618899999999,-1.3352113,1.5047601,0.83477473,-0.00045489697,0.0003034392,-2.4914742e-05,-0.34262264,0.19120945,-1.4750931,-1.4471967,0.015570171,0.0037364298,0.008197296,-0.99781907,-5.685364,-3.450002,-1.4673909,-0.010098422,113.10937,1.3307278,0.36643746,0.30792126,0.14976364,0.09782978,inf,inf,inf,inf,1,1,1,1,2,2,2,2,2,0,1,1,0,0,0
190999264,190998146,20718320,41.1790497,-8.603618899999999,-1.3748676,1.5249803,0.69068956,-0.00045489697,0.0003034392,-2.4914742e-05,-0.2887604,0.1297296,-1.50792,-1.4792591,0.015570171,0.0037364298,0.008197296,3.278283,0.20271364,3.209193,-1.4337096,-0.010098422,113.10937,1.474813,0.35824236,0.30366272,0.14545535,0.09635291,inf,inf,inf,inf,1,1,1,1,2,2,2,2,2,0,1,1,0,0,0
191099158,191098094,20718320,41.1790497,-8.603618899999999,-1.4084312,1.5393977,0.5409423,-0.00045489697,0.0003034392,-2.4914742e-05,-0.24870223,0.07068371,-1.4967419,-1.469618,0.015570171,0.0037364298,0.008197296,-1.6961391,-2.3000119,2.3263533,-1.4002854,-0.010098422,113.10937,1.6245602,0.36657155,0.30793938,0.1513538,0.09788253,inf,inf,inf,inf,1,1,1,1,2,2,2,2,2,0,1,1,0,0,0
191199173,191198042,20718320,41.1790497,-8.603618899999999,-1.435119,1.5499692,0.39781624,-0.00045489697,0.0003034392,-2.4914742e-05,-0.18989293,0.04320994,-1.402465,-1.3756503,0.015570171,0.0037364298,0.008197296,-2.2274175,-0.8214283,-2.0930395,-1.370249,-0.010098422,113.10937,1.7676864,0.3582978,0.3036515,0.14698994,0.096413724,inf,inf,inf,inf,1,1,1,1,2,2,2,2,2,0,1,1,0,0,0
191299188,191297990,20718320,41.1790497,-8.603618899999999,-1.4540902,1.5556529,0.26540953,-0.00045489697,0.0003034392,-2.4914742e-05,-0.12399435,-0.012272499,-1.278319,-1.2531791,0.015570171,0.0037364298,0.008197296,1.6965368,1.5674714,2.1097918,-1.5470474,-0.20852806,113.10937,1.9000931,0.36661515,0.3079284,0.15076713,0.098021,inf,inf,inf,inf,1,1,1,1,2,2,2,2,3,0,1,1,0,0,0
191398991,191397938,20718320,41.1790497,-8.603618899999999,-1.4685547,1.5579108,0.136897,-0.00045489697,0.0003034392,-2.4914742e-05,-0.048657153,-0.077516265,-1.2124034,-1.1939394,0.015570171,0.0037364298,0.008197296,2.104136,-2.5852017,1.3582139,-1.5059006,-0.20852806,113.10937,2.0286055,0.35839757,0.3036426,0.1443924,0.096684426,inf,inf,inf,inf,1,1,1,1,2,2,2,2,3,0,1,1,0,0,0
191498881,191497886,20718320,41.1790497,-8.603618899999999,-1.4753829,1.5546669,0.014168258,-0.00045489697,0.0003034392,-2.4914742e-05,0.023012325,-0.10731264,-1.1164532,-1.1065392,0.015570171,0.0037364298,0.008197296,-1.0212324,-1.2437043,-0.28560275,-1.4713352,-0.20852806,113.10937,2.1513343,0.3664949,0.30791184,0.15283445,0.09843095,inf,inf,inf,inf,1,1,1,1,2,2,2,2,3,0,1,1,0,0,0
191598922,191597834,20718320,41.1790497,-8.603618899999999,-1.4734662,1.5512006,-0.10677612,-0.00045489697,0.0003034392,-2.4914742e-05,0.112194926,-0.11704553,-1.0374395,-1.0422276,0.015570171,0.0037364298,0.008197296,2.3011396,1.4171597,-0.019144623,-1.4439988,-0.20852806,113.10937,2.2722788,0.35842,0.30362296,0.15368555,0.09712025,inf,inf,inf,inf,1,1,1,1,2,2,2,2,3,0,1,1,0,0,0
191698803,191697782,20718320,41.1790497,-8.603618899999999,-1.463107,1.5452135,-0.22137956,-0.00045489697,0.0003034392,-2.4914742e-05,0.17530528,-0.13310051,-0.903773,-0.92399955,0.015570171,0.0037364298,0.008197296,1.6090989,3.1571991,3.3884032,-1.421788,-0.20852806,113.10937,2.386882,0.3663634,0.3078982,0.16855966,0.09889731,inf,inf,inf,inf,1,1,1,1,2,2,2,2,3,0,1,1,0,0,0
191798799,191797730,20718320,41.1790497,-8.603618899999999,-1.4471886,1.5408809,-0.32292274,-0.00045489697,0.0003034392,-2.4914742e-05,0.21771859,-0.15804662,-0.68781954,-0.7258397,0.015570171,0.0037364298,0.008197296,-1.2450818,-0.81750643,3.9063237,-1.4020245,-0.20852806,113.10937,2.4884253,0.3583578,0.30361107,0.17027332,0.09752746,inf,inf,inf,inf,1,1,1,1,2,2,2,2,3,0,1,1,0,0,0
191898741,191897678,20718320,41.1790497,-8.603618899999999,-1.4265059,1.5349252,-0.39765725,-0.00045489697,0.0003034392,-2.4914742e-05,0.25140056,-0.16434568,-0.39977667,-0.45372674,0.015570171,0.0037364298,0.008197296,-0.7427849,-2.1215663,1.383286,-1.3835733,-0.20852806,113.10937,2.5631597,0.3662726,0.30789536,0.18646674,0.09928781,inf,inf,inf,inf,1,1,1,1,2,2,2,2,3,0,1,1,0,0,0
191998652,191997627,20718320,41.1790497,-8.603618899999999,-1.3991416,1.5304052,-0.45520014,-0.00045489697,0.0003034392,-2.4914742e-05,0.2880619,-0.1843764,-0.21873936,-0.2947023,0.015570171,0.0037364298,0.008197296,-2.2031722,-1.2151598,0.66908526,-1.3645424,-0.20852806,113.10937,2.6207027,0.35824373,0.3036085,0.18404192,0.09782063,inf,inf,inf,inf,1,1,1,1,2,2,2,2,3,0,1,1,0,0,0
192098632,192097574,20718320,41.1790497,-8.603618899999999,-1.3671446,1.5227274,-0.503268,-0.00045489697,0.0003034392,-2.4914742e-05,0.3348694,-0.21081722,-0.19589877,-0.291751,0.015570171,0.0037364298,0.008197296,3.465404,0.32580915,-0.12867725,-1.342097,-0.20852806,113.10937,2.6687706,0.36624146,0.3079029,0.201236,0.09956582,inf,inf,inf,inf,1,1,1,1,2,2,2,2,3,0,1,1,0,0,0
192198595,192197522,20718320,41.1790497,-8.603618899999999,-1.330875,1.5169368,-0.56071115,-0.00045489697,0.0003034392,-2.4914742e-05,0.3373898,-0.2018074,-0.2179018,-0.34023792,0.015570171,0.0037364298,0.008197296,-1.2669178,-0.8317751,-1.0959667,-1.3216478,-0.20852806,113.10937,2.7262137,0.3581433,0.30361393,0.19763695,0.0979767,inf,inf,inf,inf,1,1,1,1,2,2,2,2,3,0,1,1,0,0,0
192298570,192297470,20718320,41.1790497,-8.603618899999999,-1.2944325,1.5110462,-0.626468,-0.00045489697,0.0003034392,-2.4914742e-05,0.30362144,-0.18467264,-0.26721016,-0.4168787,0.015570171,0.0037364298,0.008197296,-1.817661,-3.0829651,-0.69805455,-1.3097025,-0.20852806,113.10937,2.7919705,0.366337,0.30791688,0.21576034,0.09958579,inf,inf,inf,inf,1,1,1,1,2,2,2,2,3,1,1,1,0,0,0
192398595,192397418,20718320,41.1790497,-8.603618899999999,-1.2552648,1.5094156,-0.69871366,-0.00045489697,0.0003034392,-2.4914742e-05,0.29113004,-0.16463505,-0.32964984,-0.5055206,0.015570171,0.0037364298,0.008197296,-0.76801604,3.0178025,-0.24077629,-1.3054985,-0.20852806,113.10937,2.8642163,0.35814792,0.3036573,0.20725247,0.09783909,inf,inf,inf,inf,1,1,1,1,2,2,2,2,3,1,1,1,0,0,0
192498498,192497366,20718320,41.1790497,-8.603618899999999,-1.2191281,1.5055983,-0.77326363,-0.00045489697,0.0003034392,-2.4914742e-05,0.2598358,-0.176425,-0.32726052,-0.52412206,0.015570171,0.0037364298,0.008197296,-1.1982151,-1.1157373,3.513265,-1.2996694,-0.20852806,113.10937,2.9387662,0.36660498,0.3079653,0.22501622,0.09940006,inf,inf,inf,inf,1,1,1,1,2,2,2,2,3,1,1,1,0,0,0
192599434,192597316,20718320,41.1790497,-8.603618899999999,-1.1835067,1.4989269,-0.84303874,-0.00045489697,0.0003034392,-2.4914742e-05,0.22240117,-0.18264936,-0.31478798,-0.5257346,0.015570171,0.0037364298,0.008197296,0.9639228,0.07929183,0.48414457,-1.2842793,-0.20852806,113.10937,3.0085413,0.3581025,0.30364168,0.2119467,0.09765229,inf,inf,inf,inf,1,1,1,1,2,2,2,2,3,1,1,1,0,0,0
192698382,192697262,20718320,41.1790497,-8.603618899999999,-1.1488537,1.4892752,-0.9035609,-0.00045489697,0.0003034392,-2.4914742e-05,0.21885255,-0.18817636,-0.3048417,-0.5218394,0.015570171,0.0037364298,0.008197296,-2.3233752,-0.36390543,-0.92120683,-1.2631497,-0.20852806,113.10937,3.0690634,0.3667599,0.30794945,0.22815898,0.099231586,inf,inf,inf,inf,1,1,1,1,2,2,2,2,3,1,1,1,0,0,0
192798273,192797210,20718320,41.1790497,-8.603618899999999,-1.1146154,1.4763658,-0.95682245,-0.00045489697,0.0003034392,-2.4914742e-05,0.1952886,-0.20492256,-0.29001307,-0.5063317,0.015570171,0.0037364298,0.008197296,-3.3962746,-1.1534039,-0.8272592,-1.2422478,-0.20852806,113.10937,3.122325,0.35816914,0.30365857,0.21354991,0.09758691,inf,inf,inf,inf,1,1,1,1,2,2,2,2,3,1,1,1,0,0,0
192898951,192897158,20718320,41.1790497,-8.603618899999999,-1.0842909,1.4591073,-1.0077714,-0.00045489697,0.0003034392,-2.4914742e-05,0.18100294,-0.2335139,-0.2361086,-0.45178914,0.015570171,0.0037364298,0.008197296,0.2033995,0.9341566,2.939017,-1.2245233,-0.20852806,113.10937,3.173274,0.36702824,0.30796808,0.22871312,0.09923218,inf,inf,inf,inf,1,1,1,1,2,2,2,2,3,1,1,1,0,0,0
192998177,192997108,20718320,41.1790497,-8.603618899999999,-1.0512875,1.4391522,-1.0455297,-0.00045489697,0.0003034392,-2.4914742e-05,0.17628714,-0.24170591,-0.09900114,-0.31135055,0.015570171,0.0037364298,0.008197296,1.0244443,0.9880879,1.5204422,-1.209417,-0.20852806,113.10937,3.2110324,0.3582758,0.30368677,0.21266012,0.097634986,inf,inf,inf,inf,1,1,1,1,2,2,2,2,3,1,1,1,0,0,0
193098245,193097054,20718320,41.1790497,-8.603618899999999,-1.0207077,1.4156634,-1.0682504,-0.00045489697,0.0003034392,-2.4914742e-05,0.16099149,-0.25207275,-0.02611665,-0.23289037,0.015570171,0.0037364298,0.008197296,2.363607,1.8514426,-0.65868235,-1.1946374,-0.20852806,113.10937,3.233753,0.36729044,0.30799907,0.22566445,0.09928235,inf,inf,inf,inf,1,1,1,1,2,2,2,2,3,1,1,1,0,0,0
193198931,193197002,20718320,41.1790497,-8.603618899999999,-0.9917483,1.3861396,-1.0852616,-0.00045489697,0.0003034392,-2.4914742e-05,0.119770184,-0.28420138,-0.003003373,-0.20322853,0.015570171,0.0037364298,0.008197296,1.5116667,-0.25888312,-1.2170244,-1.178773,-0.20852806,113.10937,3.2507641,0.35843113,0.30371752,0.20945853,0.09770483,inf,inf,inf,inf,1,1,1,1,2,2,2,2,3,1,1,1,0,0,0
193298126,193296950,20718320,41.1790497,-8.603618899999999,-0.96748114,1.3534884,-1.1041511,-0.00045489697,0.0003034392,-2.4914742e-05,0.09483869,-0.31511873,-0.06320759,-0.2578177,0.015570171,0.0037364298,0.008197296,-0.7286401,-1.0583386,1.657312,-1.1638178,-0.20852806,113.10937,3.2696538,0.36756217,0.3080225,0.22246736,0.099338956,inf,inf,inf,inf,1,1,1,1,2,2,2,2,3,1,1,1,0,0,0
193397989,193396898,20718320,41.1790497,-8.603618899999999,-0.94800997,1.3156639,-1.124317,-0.00045489697,0.0003034392,-2.4914742e-05,0.03174455,-0.3387224,-0.07090308,-0.25963846,0.015570171,0.0037364298,0.008197296,-3.530946,-2.1914723,1.5334247,-1.150502,-0.20852806,113.10937,3.2898197,0.35859144,0.30375168,0.20726646,0.09773983,inf,inf,inf,inf,1,1,1,1,2,2,2,2,3,1,1,1,0,0,0
193498700,193496846,20718320,41.1790497,-8.603618899999999,-0.93471,1.2760427,-1.144532,-0.00045489697,0.0003034392,-2.4914742e-05,0.018423285,-0.324884,-0.09751023,-0.27916375,0.015570171,0.0037364298,0.008197296,2.493277,1.051425,-0.14629877,-1.1373594,-0.20852806,113.10937,3.3100345,0.36782244,0.30805904,0.21982475,0.09937263,inf,inf,inf,inf,1,1,1,1,2,2,2,2,3,1,1,1,0,0,0
193597893,193596795,20718320,41.1790497,-8.603618899999999,-0.92520297,1.2307978,-1.1621244,-0.00045489697,0.0003034392,-2.4914742e-05,-0.036195487,-0.34670064,-0.082401164,-0.25204223,0.015570171,0.0037364298,0.008197296,-1.4740129,-0.85318476,0.0030245068,-1.122976,-0.20852806,113.10937,3.327627,0.35883126,0.30382007,0.2045093,0.09782312,inf,inf,inf,inf,1,1,1,1,2,2,2,2,3,1,1,1,0,0,0
193697869,193696742,20718320,41.1790497,-8.603618899999999,-0.9202595,1.1859744,-1.1790351,-0.00045489697,0.0003034392,-2.4914742e-05,-0.040252667,-0.32790262,-0.039233934,-0.20054084,0.015570171,0.0037364298,0.008197296,-0.029960975,2.1811223,3.1502373,-1.1088289,-0.20852806,113.10937,3.3445377,0.36815125,0.3081318,0.21602763,0.09944754,inf,inf,inf,inf,1,1,1,1,2,2,2,2,3,1,1,1,0,0,0
193798545,193796690,20718320,41.1790497,-8.603618899999999,-0.9162755,1.1386313,-1.1851531,-0.00045489697,0.0003034392,-2.4914742e-05,-0.058507595,-0.33743978,0.05549148,-0.096894585,0.015570171,0.0037364298,0.008197296,0.21618618,1.9438362,1.9063474,-1.095895,-0.20852806,113.10937,3.3506556,0.35899764,0.30387208,0.2004018,0.09789344,inf,inf,inf,inf,1,1,1,1,2,2,2,2,3,1,1,1,0,0,0
193897775,193896638,20718320,41.1790497,-8.603618899999999,-0.9148838,1.0914305,-1.1897168,-0.00045489697,0.0003034392,-2.4914742e-05,-0.07492103,-0.32729754,0.007898595,-0.13610144,0.015570171,0.0037364298,0.008197296,-2.1917002,1.027773,-0.8829641,-1.0818795,-0.20852806,113.10937,3.3552194,0.36833704,0.3081874,0.21013775,0.09950734,inf,inf,inf,inf,1,1,1,1,2,2,2,2,3,1,1,1,0,0,0
193997780,193996586,20718320,41.1790497,-8.603618899999999,-0.9158269,1.0438417,-1.1966443,-0.00045489697,0.0003034392,-2.4914742e-05,-0.08734285,-0.2935517,0.010272766,-0.12532645,0.015570171,0.0037364298,0.008197296,-1.1473202,-0.21191368,0.16015016,-1.0701303,-0.20852806,113.10937,3.3621469,0.35915527,0.30392995,0.19610785,0.097964965,inf,inf,inf,inf,1,1,1,1,2,2,2,2,3,1,1,1,0,0,0
194098490,194096534,20718320,41.1790497,-8.603618899999999,-0.91997033,0.9988554,-1.20644,-0.00045489697,0.0003034392,-2.4914742e-05,-0.10826604,-0.2928871,0.0026124571,-0.12858126,0.015570171,0.0037364298,0.008197296,-2.5951142,-2.1667511,3.1855302,-1.0609825,-0.20852806,113.10937,3.3719425,0.36850992,0.3082491,0.20568916,0.09958355,inf,inf,inf,inf,1,1,1,1,2,2,2,2,3,1,1,1,0,0,0
194197650,194196482,20718320,41.1790497,-8.603618899999999,-0.93187004,0.9547131,-1.2151324,-0.00045489697,0.0003034392,-2.4914742e-05,-0.12048927,-0.24324444,-0.009021033,-0.13370447,0.015570171,0.0037364298,0.008197296,3.7504041,3.7849376,0.914558,-1.0526549,-0.20852806,113.10937,3.3806348,0.359287,0.30398807,0.19225107,0.09801453,inf,inf,inf,inf,1,1,1,1,2,2,2,2,3,1,1,1,0,0,0
194297519,194296430,20718320,41.1790497,-8.603618899999999,-0.94779783,0.9147877,-1.2255753,-0.00045489697,0.0003034392,-2.4914742e-05,-0.14417504,-0.235637,-0.007767234,-0.1281095,0.015570171,0.0037364298,0.008197296,-0.60303336,1.4484006,2.9687023,-1.0451761,-0.20852806,113.10937,3.391078,0.36864,0.30831087,0.20148984,0.099639215,inf,inf,inf,inf,1,1,1,1,2,2,2,2,3,1,1,1,0,0,0
194397791,194396378,20718320,41.1790497,-8.603618899999999,-0.9680645,0.8703558,-1.231963,-0.00045489697,0.0003034392,-2.4914742e-05,-0.16809286,-0.2381131,0.020857602,-0.09298137,0.015570171,0.0037364298,0.008197296,-2.4148939,0.15726304,-0.5414345,-1.0414591,-0.20852806,113.10937,3.3974657,0.3594091,0.30405143,0.1882067,0.09809726,inf,inf,inf,inf,1,1,1,1,2,2,2,2,3,1,1,1,0,0,0
194497552,194496329,20718320,41.1790497,-8.603618899999999,-0.98873013,0.82942235,-1.2324268,-0.00045489697,0.0003034392,-2.4914742e-05,-0.14400424,-0.18115632,0.08289642,-0.02554097,0.015570171,0.0037364298,0.008197296,1.8900092,2.535464,1.3974538,-1.0424043,-0.20852806,113.10937,3.3979292,0.36874658,0.30837855,0.19620691,0.09971927,inf,inf,inf,inf,1,1,1,1,2,2,2,2,3,1,1,1,0,0,0
194597390,194596274,20718320,41.1790497,-8.603618899999999,-1.0130578,0.7879158,-1.2246697,-0.00045489697,0.0003034392,-2.4914742e-05,-0.14735009,-0.16207267,0.11063758,0.011143764,0.015570171,0.0037364298,0.008197296,-1.5137507,1.7365242,-2.9899578,-1.0462047,-0.20852806,113.10937,3.3901722,0.35952675,0.30411473,0.18384935,0.09821403,inf,inf,inf,inf,1,1,1,1,2,2,2,2,3,1,1,1,0,0,0
194697523,194696222,20718320,41.1790497,-8.603618899999999,-1.0374179,0.75151604,-1.219189,-0.00045489697,0.0003034392,-2.4914742e-05,-0.1622407,-0.14110197,-0.008391545,-0.099672146,0.015570171,0.0037364298,0.008197296,-2.2041922,-1.1066027,-5.247594,-1.0503069,-0.20852806,113.10937,3.3846917,0.3688317,0.30844772,0.1912522,0.09986138,inf,inf,inf,inf,1,1,1,1,2,2,2,2,3,1,1,1,0,0,0
194797500,194796170,20718320,41.1790497,-8.603618899999999,-1.0678611,0.71793914,-1.2247803,-0.00045489697,0.0003034392,-2.4914742e-05,-0.15290035,-0.113126166,-0.18007457,-0.26008454,0.015570171,0.0037364298,0.008197296,3.4669948,1.1349528,-1.3456933,-1.051977,-0.20852806,113.10937,3.3902829,0.35961026,0.30418518,0.18044081,0.09834258,inf,inf,inf,inf,1,1,1,1,2,2,2,2,3,1,1,1,0,0,0
194897290,194896118,20718320,41.1790497,-8.603618899999999,-1.0986251,0.6918373,-1.249475,-0.00045489697,0.0003034392,-2.4914742e-05,-0.16974863,-0.06483806,-0.30472997,-0.37752894,0.015570171,0.0037364298,0.008197296,-0.6084223,-1.9503847,0.3391921,-1.0545524,-0.20852806,113.10937,3.4149776,0.36890212,0.30852428,0.18840511,0.09994495,inf,inf,inf,inf,1,1,1,1,2,2,2,2,3,1,1,1,0,0,0
194997364,194996068,20718320,41.1790497,-8.603618899999999,-1.13283,0.67084515,-1.2747514,-0.00045489697,0.0003034392,-2.4914742e-05,-0.16480285,-0.03387394,-0.37589094,-0.43467778,0.015570171,0.0037364298,0.008197296,0.16944793,-2.4148543,-2.022291,-1.0584745,-0.20852806,113.10937,3.440254,0.35960308,0.30537528,0.1779344,0.09858434,inf,inf,inf,inf,1,1,1,1,2,2,2,2,3,1,1,1,0,0,0
195097185,195096014,20718320,41.1790497,-8.603618899999999,-1.1655316,0.6561481,-1.3075052,-0.00045489697,0.0003034392,-2.4914742e-05,-0.14162862,0.023532374,-0.44570488,-0.49152592,0.015570171,0.0037364298,0.008197296,-0.9299958,-1.0367031,-2.9249434,-1.0610214,-0.20852806,113.10937,3.4730077,0.36886212,0.30975854,0.18523407,0.10022297,inf,inf,inf,inf,1,1,1,1,2,2,2,2,3,1,1,1,0,0,0
195197042,195195961,20718320,41.1790497,-8.603618899999999,-1.2005639,0.6445897,-1.3388832,-0.00045489697,0.0003034392,-2.4914742e-05,-0.11988372,0.037443526,-0.4390814,-0.46730798,0.015570171,0.0037364298,0.008197296,1.0279249,-2.398625,1.0400008,-1.0644596,-0.20852806,113.10937,3.5043857,0.35965705,0.3054364,0.1752153,0.098694846,inf,inf,inf,inf,1,1,1,1,2,2,2,2,3,1,1,1,0,0,0
195296983,195295910,20718320,41.1790497,-8.603618899999999,-1.2318757,0.6377914,-1.3686664,-0.00045489697,0.0003034392,-2.4914742e-05,-0.10582686,0.06524551,-0.3887498,-0.40355197,0.015570171,0.0037364298,0.008197296,-1.2170879,1.1926211,-0.33626685,-1.0679773,-0.20852806,113.10937,3.534169,0.36888146,0.30982542,0.18160264,0.10031964,inf,inf,inf,inf,1,1,1,1,2,2,2,2,3,1,1,1,0,0,0
195396930,195395857,20718320,41.1790497,-8.603618899999999,-1.2652797,0.6342359,-1.3880045,-0.00045489697,0.0003034392,-2.4914742e-05,-0.077228434,0.09442183,-0.2797699,-0.27957836,0.015570171,0.0037364298,0.008197296,1.2565885,3.8259408,3.4280403,-1.069878,-0.20852806,113.10937,3.553507,0.35969514,0.30549845,0.17148414,0.098789476,inf,inf,inf,inf,1,1,1,1,2,2,2,2,3,1,1,1,0,0,0
195496811,195495806,20718320,41.1790497,-8.603618899999999,-1.294308,0.6337592,-1.3960868,-0.00045489697,0.0003034392,-2.4914742e-05,-0.046879597,0.09862401,-0.15838934,-0.14619243,0.015570171,0.0037364298,0.008197296,1.0671037,3.0414717,2.2999372,-1.0722756,-0.20852806,113.10937,3.5615892,0.36885974,0.30989394,0.17743693,0.100450575,inf,inf,inf,inf,1,1,1,1,2,2,2,2,3,1,1,1,0,0,0
195596779,195595753,20718320,41.1790497,-8.603618899999999,-1.3251054,0.6375009,-1.3964758,-0.00045489697,0.0003034392,-2.4914742e-05,-0.018140292,0.12866987,-0.10788509,-0.08580092,0.015570171,0.0037364298,0.008197296,2.030281,1.6664097,1.9901668,-1.0729294,-0.20852806,113.10937,3.5619783,0.35972968,0.30556154,0.1675698,0.09886212,inf,inf,inf,inf,1,1,1,1,2,2,2,2,3,1,1,1,0,0,0
195696707,195695701,20718320,41.1790497,-8.603618899999999,-1.3507028,0.6449002,-1.3951607,-0.00045489697,0.0003034392,-2.4914742e-05,0.002903635,0.13189848,-0.046541262,-0.019098137,0.015570171,0.0037364298,0.008197296,0.80839443,-2.8643432,0.042510908,-1.0754488,-0.20852806,113.10937,3.5606632,0.36882737,0.30996266,0.17353207,0.100515224,inf,inf,inf,inf,1,1,1,1,2,2,2,2,3,1,1,1,0,0,0
195796720,195795649,20718320,41.1790497,-8.603618899999999,-1.3778512,0.65581405,-1.386285,-0.00045489697,0.0003034392,-2.4914742e-05,0.011471,0.14817296,-0.018232496,0.014627731,0.015570171,0.0037364298,0.008197296,-1.4876909,-2.9586546,-3.6516192,-1.0773647,-0.20852806,113.10937,3.5517874,0.3597315,0.3056242,0.16452126,0.09891785,inf,inf,inf,inf,1,1,1,1,2,2,2,2,3,1,1,1,0,0,0
195896674,195895598,20718320,41.1790497,-8.603618899999999,-1.399257,0.6693472,-1.3819056,-0.00045489697,0.0003034392,-2.4914742e-05,0.055128694,0.14738524,-0.07216504,-0.03613913,0.015570171,0.0037364298,0.008197296,1.6198173,-2.7878377,-0.62016857,-1.0778826,-0.20852806,113.10937,3.547408,0.36876836,0.3100301,0.17012414,0.1005717,inf,inf,inf,inf,1,1,1,1,2,2,2,2,3,1,1,1,0,0,0
195996665,195995546,20718320,41.1790497,-8.603618899999999,-1.4214989,0.6883812,-1.3785601,-0.00045489697,0.0003034392,-2.4914742e-05,0.07382225,0.18298355,-0.08068439,-0.038537562,0.015570171,0.0037364298,0.008197296,-0.38744932,3.7706153,2.3728385,-1.078756,-0.20852806,113.10937,3.5440626,0.3597764,0.30571532,0.1621227,0.09895357,inf,inf,inf,inf,1,1,1,1,2,2,2,2,3,1,1,1,0,0,0
196096437,196095493,20718320,41.1790497,-8.603618899999999,-1.4355124,0.7101265,-1.3812051,-0.00045489697,0.0003034392,-2.4914742e-05,0.104332216,0.18341541,-0.1003146,-0.056054685,0.015570171,0.0037364298,0.008197296,-2.2554455,-1.9238064,0.9846161,-1.0797652,-0.20852806,113.10937,3.5467076,0.3687799,0.3101268,0.1678743,0.100606404,inf,inf,inf,inf,1,1,1,1,2,2,2,2,3,1,1,1,0,0,0
196196470,196195440,20718320,41.1790497,-8.603618899999999,-1.4487197,0.73684394,-1.3832088,-0.00045489697,0.0003034392,-2.4914742e-05,0.14640862,0.21884601,-0.13487166,-0.08579913,0.015570171,0.0037364298,0.008197296,2.7952616,1.3362212,-0.9539762,-1.0827413,-0.20852806,113.10937,3.5487113,0.35974166,0.30577588,0.15988319,0.09897778,inf,inf,inf,inf,1,1,1,1,2,2,2,2,3,1,1,1,0,0,0
196296333,196295389,20718320,41.1790497,-8.603618899999999,-1.4556878,0.76521254,-1.3889359,-0.00045489697,0.0003034392,-2.4914742e-05,0.14506261,0.20888233,-0.1521917,-0.10109981,0.015570171,0.0037364298,0.008197296,-2.6216443,-3.969616,-0.9452833,-1.1110407,-0.20852806,113.10937,3.5544386,0.36869615,0.31019074,0.1656257,0.10060499,inf,inf,inf,inf,1,1,1,1,2,2,2,2,3,1,1,1,0,0,0
196396546,196395341,20718320,41.1790497,-8.603618899999999,-1.4646724,0.79591894,-1.395638,-0.00045489697,0.0003034392,-2.4914742e-05,0.18435179,0.2094353,-0.1897592,-0.13421007,0.015570171,0.0037364298,0.008197296,4.324796,1.7243495,0.5473732,-1.2024121,-0.20852806,113.10937,3.5611405,0.35968706,0.3058348,0.1577914,0.09900924,inf,inf,inf,inf,1,1,1,1,2,2,2,2,3,1,1,1,0,0,0
196496293,196495287,20718320,41.1790497,-8.603618899999999,-1.470062,0.8250234,-1.4098216,-0.00045489697,0.0003034392,-2.4914742e-05,0.15727119,0.18369988,-0.24760534,-0.19013716,0.015570171,0.0037364298,0.008197296,-0.14391947,-0.42710873,3.8910177,-1.3436651,-0.20852806,113.10937,3.575324,0.3685894,0.3102531,0.16313359,0.10060161,inf,inf,inf,inf,1,1,1,1,2,2,2,2,3,1,1,1,0,0,0
196596340,196595232,20718320,41.1790497,-8.603618899999999,-1.4768283,0.85324615,-1.4235488,-0.00045489697,0.0003034392,-2.4914742e-05,0.15914384,0.16808246,-0.2695217,-0.20637654,0.015570171,0.0037364298,0.008197296,1.5421451,-1.1520599,-2.0585587,-1.5153031,-0.20852806,113.10937,3.5890512,0.35961086,0.30588573,0.15553112,0.09901969,inf,inf,inf,inf,1,1,1,1,2,2,2,2,3,1,1,1,0,0,0
196696299,196695180,20718320,41.1790497,-8.603618899999999,-1.4807829,0.87945694,-1.4380299,-0.00045489697,0.0003034392,-2.4914742e-05,0.1594314,0.17301904,-0.23418698,-0.16803953,0.015570171,0.0037364298,0.008197296,2.4034958,-0.10448879,-3.528689,-1.6951634,-0.20852806,113.10937,3.6035323,0.36846036,0.3103077,0.16031729,0.10063828,inf,inf,inf,inf,1,1,1,1,2,2,2,2,3,1,1,1,0,0,0
196796237,196795128,20718320,41.1790497,-8.603618899999999,-1.4840997,0.90872645,-1.4440497,-0.00045489697,0.0003034392,-2.4914742e-05,0.1814381,0.17333433,-0.13971709,-0.06867791,0.015570171,0.0037364298,0.008197296,0.40922266,1.6034292,0.88743246,-1.8235596,-0.20852806,113.10937,3.6095524,0.35952312,0.30593696,0.15305772,0.0990545,inf,inf,inf,inf,1,1,1,1,2,2,2,2,3,1,1,1,0,0,0
196896146,196895076,20718320,41.1790497,-8.603618899999999,-1.4826295,0.93714166,-1.4453126,-0.00045489697,0.0003034392,-2.4914742e-05,0.20387314,0.15672415,-0.099158384,-0.02595877,0.015570171,0.0037364298,0.008197296,0.64185286,-1.9943612,-1.4700611,-1.9083605,-0.20852806,113.10937,3.610815,0.36829466,0.31035155,0.15778439,0.10064237,inf,inf,inf,inf,1,1,1,1,2,2,2,2,3,1,1,1,0,0,0
196996135,196995023,20718320,41.1790497,-8.603618899999999,-1.4806415,0.96713567,-1.4476913,-0.00045489697,0.0003034392,-2.4914742e-05,0.21208885,0.17911685,-0.08121825,-0.009789888,0.015570171,0.0037364298,0.008197296,-1.6572236,1.5145366,-0.5244414,-1.969302,-0.20852806,113.10937,3.613194,0.35926402,0.3058764,0.15131944,0.0989049,inf,inf,inf,inf,1,1,1,1,2,2,2,2,3,1,1,1,0,0,0
197096083,197094972,20718320,41.1790497,-8.603618899999999,-1.4754331,0.9999504,-1.4550965,-0.00045489697,0.0003034392,-2.4914742e-05,0.25050998,0.19936979,-0.08190895,-0.018877799,0.015570171,0.0037364298,0.008197296,2.0596817,0.1484775,0.59795517,-2.015392,-0.20852806,113.10937,3.620599,0.3679294,0.310285,0.15722819,0.10047278,inf,inf,inf,inf,1,1,1,1,2,2,2,2,3,1,1,1,0,0,0
197196069,197194919,20718320,41.1790497,-8.603618899999999,-1.46865,1.0390793,-1.4662249,-0.00045489697,0.0003034392,-2.4914742e-05,0.27585793,0.24489965,-0.043346245,0.0075342054,0.015570171,0.0037364298,0.008197296,2.7174532,0.62672055,1.6372111,-2.0510833,-0.20852806,113.10937,3.6317275,0.3590177,0.30581716,0.15228637,0.09872998,inf,inf,inf,inf,1,1,1,1,2,2,2,2,3,1,1,1,0,0,0
197295930,197294867,20718320,41.1790497,-8.603618899999999,-1.4566218,1.0805959,-1.4814768,-0.00045489697,0.0003034392,-2.4914742e-05,0.30687848,0.28343958,-0.053114675,-0.017782759,0.015570171,0.0037364298,0.008197296,1.0270611,2.604358,2.401741,-2.0782127,-0.20852806,113.10937,3.6469793,0.36760128,0.3102184,0.1594344,0.10027678,inf,inf,inf,inf,1,1,1,1,2,2,2,2,3,1,1,1,0,0,0
197395808,197394815,20718320,41.1790497,-8.603618899999999,-1.4396231,1.1284063,-1.4938895,-0.00045489697,0.0003034392,-2.4914742e-05,0.33750767,0.32084548,-0.054687075,-0.031071588,0.015570171,0.0037364298,0.008197296,2.005785,-1.7734023,0.13704403,-2.0984597,-0.20852806,113.10937,3.6593919,0.35881114,0.30575824,0.15535745,0.09859508,inf,inf,inf,inf,1,1,1,1,2,2,2,2,3,1,1,1,0,0,0
197495751,197494763,20718320,41.1790497,-8.603618899999999,-1.4167916,1.1760653,-1.5073768,-0.00045489697,0.0003034392,-2.4914742e-05,0.36770406,0.3396746,-0.01093267,0.0006118503,0.015570171,0.0037364298,0.008197296,2.6232135,-1.0909835,2.4356325,-2.1132936,-0.20852806,113.10937,3.6728792,0.36734262,0.31015357,0.16374266,0.10016351,inf,inf,inf,inf,1,1,1,1,2,2,2,2,3,1,1,1,0,0,0
197595758,197594711,20718320,41.1790497,-8.603618899999999,-1.3895719,1.226173,-1.5185472,-0.00045489697,0.0003034392,-2.4914742e-05,0.3912906,0.36037186,-0.052608527,-0.050243825,0.015570171,0.0037364298,0.008197296,-3.723774,1.3391076,-0.99837726,-2.1244912,-0.20852806,113.10937,3.6840496,0.3585316,0.305649,0.15924901,0.098479755,inf,inf,inf,inf,1,1,1,1,2,2,2,2,3,1,1,1,0,0,0
197695781,197694659,20718320,41.1790497,-8.603618899999999,-1.3577288,1.2755548,-1.52966,-0.00045489697,0.0003034392,-2.4914742e-05,0.4461006,0.3672696,-0.046061203,-0.05270684,0.015570171,0.0037364298,0.008197296,0.6509632,-2.3613787,-3.1072397,-2.1302881,-0.20852806,113.10937,3.6951625,0.36702332,0.310038,0.16847742,0.100094035,inf,inf,inf,inf,1,1,1,1,2,2,2,2,3,1,1,1,0,0,0
197795611,197794607,20718320,41.1790497,-8.603618899999999,-1.3210263,1.3272021,-1.5483398,-0.00045489697,0.0003034392,-2.4914742e-05,0.4695186,0.36074644,-0.2079768,-0.2201806,0.015570171,0.0037364298,0.008197296,-4.495866,1.4474041,-3.1095874,-2.1315436,-0.20852806,113.10937,3.7138424,0.358283,0.3055533,0.16397236,0.09842789,inf,inf,inf,inf,1,1,1,1,2,2,2,2,3,1,1,1,0,0,0
197895605,197894554,20718320,41.1790497,-8.603618899999999,-1.277656,1.3751397,-1.589745,-0.00045489697,0.0003034392,-2.4914742e-05,0.51525265,0.32482722,-0.426696,-0.4479787,0.015570171,0.0037364298,0.008197296,-2.543291,-1.3623842,3.4800892,-2.1316042,-0.20852806,113.10937,3.7552476,0.366781,0.3099374,0.17414232,0.10005055,inf,inf,inf,inf,1,1,1,1,2,2,2,2,3,1,1,1,0,0,0
197995517,197994502,20718320,41.1790497,-8.603618899999999,-1.2343069,1.4238708,-1.6499944,-0.00045489697,0.0003034392,-2.4914742e-05,0.56948316,0.26712325,-0.76470345,-0.78470075,0.015570171,0.0037364298,0.008197296,2.022512,-3.162843,-4.195676,-2.12784,-0.20852806,113.10937,3.815497,0.3580275,0.3054345,0.16959618,0.09837752,inf,inf,inf,inf,1,1,1,1,2,2,2,2,3,1,1,1,0,0,0
198095511,198094450,20718320,41.1790497,-8.603618899999999,-1.1883171,1.4662559,-1.7459384,-0.00045489697,0.0003034392,-2.4914742e-05,0.5348828,0.24224767,-1.1753554,-1.1935518,0.015570171,0.0037364298,0.008197296,-3.8718522,3.0800285,-5.9909124,-2.125205,-0.20852806,113.10937,3.9114408,0.36658478,0.30981347,0.18091021,0.09993539,inf,inf,inf,inf,1,1,1,1,2,2,2,2,3,1,1,1,0,0,0
198195447,198194398,20718320,41.1790497,-8.603618899999999,-1.1394787,1.5096349,-1.8753072,-0.00045489697,0.0003034392,-2.4914742e-05,0.5337358,0.18416916,-1.6153964,-1.6211157,0.015570171,0.0037364298,0.008197296,0.79091114,2.655096,-5.9647584,-2.1229575,-0.20852806,113.10937,4.0408096,0.3577184,0.305276,0.17564218,0.09831798,inf,inf,inf,inf,1,1,1,1,2,2,2,2,3,1,1,1,0,0,0
198295495,198294347,20718320,41.1790497,-8.603618899999999,-1.090711,1.5485504,-2.0415363,-0.00045489697,0.0003034392,-2.4914742e-05,0.49066493,0.13009833,-1.925928,-1.9192095,0.015570171,0.0037364298,0.008197296,-2.9702072,1.7023106,-1.3642539,-2.122603,-0.20852806,113.10937,4.207039,0.36635962,0.30965012,0.18747914,0.09991339,inf,inf,inf,inf,1,1,1,1,2,2,2,2,3,1,1,1,0,0,0
198395233,198394293,20718320,41.1790497,-8.603618899999999,-1.0395763,1.5846179,-2.2185004,-0.00045489697,0.0003034392,-2.4914742e-05,0.47823173,0.09512828,-2.0977495,-2.0660975,0.015570171,0.0037364298,0.008197296,-2.1967368,-1.5209433,5.634388,-2.1246972,-0.20852806,113.10937,4.3840027,0.35741666,0.30510524,0.1800837,0.09825837,inf,inf,inf,inf,1,1,1,1,2,2,2,2,3,1,1,1,0,0,0
198495236,198494241,20718320,41.1790497,-8.603618899999999,-0.987201,1.6155237,-2.40123,-0.00045489697,0.0003034392,-2.4914742e-05,0.47603148,0.07835373,-2.113709,-2.0571773,0.015570171,0.0037364298,0.008197296,3.3894637,-1.7677226,2.0404348,-2.1251705,-0.20852806,113.10937,4.5667324,0.36612555,0.30947807,0.19025321,0.09989351,inf,inf,inf,inf,1,1,1,1,2,2,2,2,3,1,1,1,0,0,0
198595284,198594193,20718320,41.1790497,-8.603618899999999,-0.9333541,1.6460495,-2.57987,-0.00045489697,0.0003034392,-2.4914742e-05,0.43601853,0.06501887,-2.1489499,-2.065021,0.015570171,0.0037364298,0.008197296,-3.5656402,0.21718547,-2.462207,-2.125042,-0.20852806,113.10937,4.745373,0.3571653,0.30492553,0.18068185,0.09824055,inf,inf,inf,inf,1,1,1,1,2,2,2,2,3,1,1,1,0,0,0
198695278,198694137,20718320,41.1790497,-8.603618899999999,-0.88011706,1.6703523,-2.7622056,-0.00045489697,0.0003034392,-2.4914742e-05,0.44487092,0.045733575,-2.0984867,-1.9951904,0.015570171,0.0037364298,0.008197296,0.19900398,2.942178,-2.667905,-2.1273222,-0.20852806,113.10937,4.927708,0.36591,0.30929014,0.18977083,0.09992655,inf,inf,inf,inf,1,1,1,1,2,2,2,2,3,1,1,1,0,0,0
198795107,198794085,20718320,41.1790497,-8.603618899999999,-0.82426816,1.6905326,-2.937156,-0.00045489697,0.0003034392,-2.4914742e-05,0.4200079,-0.0009949442,-1.9806123,-1.8608122,0.015570171,0.0037364298,0.008197296,-2.161777,0.5536959,0.89862585,-2.132207,-0.20852806,113.10937,5.1026583,0.3569191,0.30473748,0.179675,0.09824822,inf,inf,inf,inf,1,1,1,1,2,2,2,2,3,1,1,1,0,0,0
198895271,198894032,20718320,41.1790497,-8.603618899999999,-0.76939875,1.703516,-3.0995948,-0.00045489697,0.0003034392,-2.4914742e-05,0.43281367,-0.02643854,-1.7430608,-1.6140811,0.015570171,0.0037364298,0.008197296,2.5332997,0.40554184,3.776545,-2.1363015,-0.20852806,113.10937,5.2650976,0.36567855,0.30910414,0.18765648,0.09991076,inf,inf,inf,inf,1,1,1,1,2,2,2,2,3,1,1,1,0,0,0
198994996,198993980,20718320,41.1790497,-8.603618899999999,-0.71346885,1.7083452,-3.2441015,-0.00045489697,0.0003034392,-2.4914742e-05,0.40669492,-0.06891061,-1.4677196,-1.3368182,0.015570171,0.0037364298,0.008197296,0.3342057,-0.10459545,2.8495815,-2.1424189,-0.20852806,113.10937,5.409604,0.3566915,0.30453077,0.17694445,0.098222174,inf,inf,inf,inf,1,1,1,1,2,2,2,2,3,1,1,1,0,0,0
199095653,199093928,20718320,41.1790497,-8.603618899999999,-0.659216,1.7065786,-3.3628325,-0.00045489697,0.0003034392,-2.4914742e-05,0.3945569,-0.098654434,-1.1530756,-1.025208,0.015570171,0.0037364298,0.008197296,-1.225972,-1.5389733,3.1521225,-2.1488423,-0.20852806,113.10937,5.528335,0.36542806,0.3088994,0.18393578,0.099873066,inf,inf,inf,inf,1,1,1,1,2,2,2,2,3,1,1,1,0,0,0
199194993,199193875,20718320,41.1790497,-8.603618899999999,-0.60377765,1.6997578,-3.4610262,-0.00045489697,0.0003034392,-2.4914742e-05,0.38620317,-0.12542537,-0.8486435,-0.73362005,0.015570171,0.0037364298,0.008197296,-0.64514726,0.8045104,3.3325088,-2.1549888,-0.20852806,113.10937,5.6265287,0.35644025,0.3043069,0.17370756,0.09818932,inf,inf,inf,inf,1,1,1,1,2,2,2,2,3,1,1,1,0,0,0
199294915,199293823,20718320,41.1790497,-8.603618899999999,-0.5514923,1.688143,-3.5349808,-0.00045489697,0.0003034392,-2.4914742e-05,0.38614103,-0.16111511,-0.59062546,-0.48999918,0.015570171,0.0037364298,0.008197296,0.26578444,-1.1969817,2.7006543,-2.1607566,-0.20852806,113.10937,5.7004833,0.36513686,0.30867693,0.18034987,0.09979818,inf,inf,inf,inf,1,1,1,1,2,2,2,2,3,1,1,1,0,0,0
199395636,199393771,20718320,41.1790497,-8.603618899999999,-0.5001412,1.6724721,-3.5894096,-0.00045489697,0.0003034392,-2.4914742e-05,0.36077282,-0.177487,-0.31389347,-0.23406996,0.015570171,0.0037364298,0.008197296,-2.4223764,1.589183,2.9273782,-2.1675606,-0.20852806,113.10937,5.7549124,0.35613072,0.3039439,0.17097951,0.098053336,inf,inf,inf,inf,1,1,1,1,2,2,2,2,3,1,1,1,0,0,0
199494806,199493719,20718320,41.1790497,-8.603618899999999,-0.45322883,1.6539762,-3.6159182,-0.00045489697,0.0003034392,-2.4914742e-05,0.3253034,-0.19388431,-0.010091195,0.05084583,0.015570171,0.0037364298,0.008197296,-1.4455234,1.9636304,3.022742,-2.173386,-0.20852806,113.10937,5.7814207,0.36479637,0.30831435,0.17762348,0.099649094,inf,inf,inf,inf,1,1,1,1,2,2,2,2,3,1,1,1,0,0,0
199594811,199593667,20718320,41.1790497,-8.603618899999999,-0.41253746,1.6264644,-3.6213074,-0.00045489697,0.0003034392,-2.4914742e-05,0.3063764,-0.20790143,0.29997307,0.33523932,0.015570171,0.0037364298,0.008197296,-2.0280836,0.00940779,1.9273463,-2.177875,-0.20852806,113.10937,5.78681,0.35572144,0.30344027,0.16866925,0.09791073,inf,inf,inf,inf,1,1,1,1,2,2,2,2,3,1,1,1,0,0,0
199694753,199693614,20718320,41.1790497,-8.603618899999999,-0.37743863,1.5962925,-3.597313,-0.00045489697,0.0003034392,-2.4914742e-05,0.27308008,-0.21972509,0.5570776,0.5706733,0.015570171,0.0037364298,0.008197296,-0.8842247,1.9318792,3.578049,-2.1777434,-0.20852806,113.10937,5.7628155,0.36435536,0.30781114,0.17499301,0.09946792,inf,inf,inf,inf,1,1,1,1,2,2,2,2,3,1,1,1,0,0,0
199794650,199793562,20718320,41.1790497,-8.603618899999999,-0.34279358,1.5625668,-3.556155,-0.00045489697,0.0003034392,-2.4914742e-05,0.23403648,-0.24009463,0.74636877,0.73381937,0.015570171,0.0037364298,0.008197296,-0.48790255,-2.4240143,1.2486119,-2.1733177,-0.20852806,113.10937,5.7216578,0.35515714,0.30283543,0.16640432,0.09768978,inf,inf,inf,inf,1,1,1,1,2,2,2,2,3,1,1,1,0,0,0
199894617,199893510,20718320,41.1790497,-8.603618899999999,-0.31033555,1.5283445,-3.5039337,-0.00045489697,0.0003034392,-2.4914742e-05,0.22997412,-0.22316054,0.7961813,0.760917,0.015570171,0.0037364298,0.008197296,-1.6846664,0.44435257,-0.91610336,-2.166059,-0.20852806,113.10937,5.6694365,0.36375803,0.30720496,0.17303988,0.09923982,inf,inf,inf,inf,1,1,1,1,2,2,2,2,3,1,1,1,0,0,0
199994605,199993459,20718320,41.1790497,-8.603618899999999,-0.28280944,1.4883819,-3.450168,-0.00045489697,0.0003034392,-2.4914742e-05,0.18673328,-0.23680878,0.8118909,0.754691,0.015570171,0.0037364298,0.008197296,1.0532283,-1.7563758,2.1255305,-2.1588812,-0.20852806,113.10937,5.61567,0.35467497,0.30226976,0.16510996,0.09746901,inf,inf,inf,inf,1,1,1,1,2,2,2,2,3,1,1,1,0,0,0
200094400,200093405,20718320,41.1790497,-8.603618899999999,-0.26067778,1.4501143,-3.3986409,-0.00045489697,0.0003034392,-2.4914742e-05,0.1234885,-0.22052775,0.7006342,0.62826854,0.015570171,0.0037364298,0.008197296,-3.0692368,-3.7537596,-1.2624403,-2.1542697,-0.20852806,113.10937,5.564143,0.3632953,0.3066386,0.17199555,0.099001065,inf,inf,inf,inf,1,1,1,1,2,2,2,2,3,1,1,1,0,0,0
200194703,200193353,20718320,41.1790497,-8.603618899999999,-0.24047133,1.4054508,-3.3520904,-0.00045489697,0.0003034392,-2.4914742e-05,0.11212296,-0.21305619,0.60636055,0.5239732,0.015570171,0.0037364298,0.008197296,-1.1035221,2.008929,-1.8860726,-2.1521912,-0.20852806,113.10937,5.517593,0.35418296,0.3016942,0.16481762,0.09728511,inf,inf,inf,inf,1,1,1,1,2,2,2,2,3,1,1,1,0,0,0
200294336,200293301,20718320,41.1790497,-8.603618899999999,-0.2240677,1.3633457,-3.3148172,-0.00045489697,0.0003034392,-2.4914742e-05,0.08092206,-0.20964196,0.4295069,0.3424607,0.015570171,0.0037364298,0.008197296,-0.8328492,-2.1064363,-1.977114,-2.1469834,-0.20852806,113.10937,5.48032,0.36284623,0.30606267,0.1715577,0.09880308,inf,inf,inf,inf,1,1,1,1,2,2,2,2,3,1,1,1,0,0,0
200394273,200393248,20718320,41.1790497,-8.603618899999999,-0.21374997,1.3158759,-3.2928255,-0.00045489697,0.0003034392,-2.4914742e-05,0.012315146,-0.20287782,0.14449239,0.06183897,0.015570171,0.0037364298,0.008197296,-4.352429,-0.1836075,-0.4964835,-2.1428924,-0.20852806,113.10937,5.4583282,0.35364208,0.3010791,0.16413689,0.09706403,inf,inf,inf,inf,1,1,1,1,2,2,2,2,3,1,1,1,0,0,0
200494202,200493196,20718320,41.1790497,-8.603618899999999,-0.21028888,1.2706629,-3.2900772,-0.00045489697,0.0003034392,-2.4914742e-05,-0.033900686,-0.17591335,-0.025766043,-0.10046148,0.015570171,0.0037364298,0.008197296,-0.67794085,2.4749522,0.6054863,-2.1377838,-0.20852806,113.10937,5.4555798,0.36234796,0.3054363,0.1716593,0.09860851,inf,inf,inf,inf,1,1,1,1,2,2,2,2,3,1,1,1,0,0,0
200594439,200593143,20718320,41.1790497,-8.603618899999999,-0.20987783,1.2255961,-3.2899199,-0.00045489697,0.0003034392,-2.4914742e-05,-0.07350258,-0.16539374,-0.123104274,-0.17951666,0.015570171,0.0037364298,0.008197296,-1.2354814,-1.652882,-2.5567598,-2.1356688,-0.20852806,113.10937,5.4554224,0.3530818,0.300395,0.164257,0.09690655,inf,inf,inf,inf,1,1,1,1,2,2,2,2,3,1,1,1,0,0,0
200694166,200693091,20718320,41.1790497,-8.603618899999999,-0.2139537,1.1854477,-3.2902381,-0.00045489697,0.0003034392,-2.4914742e-05,-0.10190608,-0.16851628,-0.082248025,-0.121374026,0.015570171,0.0037364298,0.008197296,0.3608934,-2.2882917,0.71487546,-2.1358302,-0.20852806,113.10937,5.455741,0.36183175,0.30475366,0.17088398,0.09844477,inf,inf,inf,inf,1,1,1,1,2,2,2,2,3,1,1,1,0,0,0
200794159,200793039,20718320,41.1790497,-8.603618899999999,-0.22707735,1.1398259,-3.2789998,-0.00045489697,0.0003034392,-2.4914742e-05,-0.15569751,-0.16415969,0.03666219,0.017503524,0.015570171,0.0037364298,0.008197296,-0.9365192,3.9490786,3.2643852,-2.1379957,-0.20852806,113.10937,5.4445024,0.35252574,0.29968926,0.16278939,0.096751235,inf,inf,inf,inf,1,1,1,1,2,2,2,2,3,1,1,1,0,0,0
200894136,200892986,20718320,41.1790497,-8.603618899999999,-0.243486,1.0971335,-3.253485,-0.00045489697,0.0003034392,-2.4914742e-05,-0.16018067,-0.15950316,0.21916118,0.21606734,0.015570171,0.0037364298,0.008197296,-0.77933484,1.210853,2.9510107,-2.1392524,-0.20852806,113.10937,5.4189873,0.36126947,0.30405092,0.16864337,0.09830754,inf,inf,inf,inf,1,1,1,1,2,2,2,2,3,1,1,1,0,0,0
200993993,200992934,20718320,41.1790497,-8.603618899999999,-0.26317814,1.0531406,-3.2072399,-0.00045489697,0.0003034392,-2.4914742e-05,-0.19137773,-0.16410217,0.44629467,0.45621917,0.015570171,0.0037364298,0.008197296,-1.2249112,2.4651327,4.338539,-2.1402586,-0.20852806,113.10937,5.3727427,0.3518949,0.29894868,0.16018836,0.09660939,inf,inf,inf,inf,1,1,1,1,2,2,2,2,3,1,1,1,0,0,0
201093955,201092882,20718320,41.1790497,-8.603618899999999,-0.2855034,1.0117381,-3.1482472,-0.00045489697,0.0003034392,-2.4914742e-05,-0.19401069,-0.16673434,0.51616937,0.53551286,0.015570171,0.0037364298,0.008197296,2.9534893,-0.19816771,2.929761,-2.1414924,-0.20852806,113.10937,5.31375,0.36058584,0.30331236,0.16542658,0.098155044,inf,inf,inf,inf,1,1,1,1,2,2,2,2,3,1,1,1,0,0,0
201194189,201192829,20718320,41.1790497,-8.603618899999999,-0.31466356,0.970326,-3.0925689,-0.00045489697,0.0003034392,-2.4914742e-05,-0.23148951,-0.14867328,0.45010355,0.47363642,0.015570171,0.0037364298,0.008197296,0.4083781,0.78077996,-1.487703,-2.1405773,-0.20852806,113.10937,5.2580714,0.35130855,0.298246,0.15781702,0.09648785,inf,inf,inf,inf,1,1,1,1,2,2,2,2,3,1,1,1,0,0,0
201293787,201292777,20718320,41.1790497,-8.603618899999999,-0.3464838,0.93498355,-3.047147,-0.00045489697,0.0003034392,-2.4914742e-05,-0.23531272,-0.1347321,0.35300505,0.3780075,0.015570171,0.0037364298,0.008197296,2.9087214,-1.2788233,-1.4217254,-2.1391325,-0.20852806,113.10937,5.2126493,0.35997978,0.3026142,0.16372424,0.09803531,inf,inf,inf,inf,1,1,1,1,2,2,2,2,3,1,1,1,0,0,0
201393778,201392725,20718320,41.1790497,-8.603618899999999,-0.38454157,0.8974289,-3.0060828,-0.00045489697,0.0003034392,-2.4914742e-05,-0.2552804,-0.105043836,0.33014292,0.36011407,0.015570171,0.0037364298,0.008197296,2.932529,-0.5409176,1.4248928,-2.1352153,-0.20852806,113.10937,5.171585,0.35072523,0.2975717,0.15675582,0.09637872,inf,inf,inf,inf,1,1,1,1,2,2,2,2,3,1,1,1,0,0,0
201493761,201492672,20718320,41.1790497,-8.603618899999999,-0.42226696,0.8653783,-2.9678106,-0.00045489697,0.0003034392,-2.4914742e-05,-0.2521901,-0.09068044,0.31763023,0.35128936,0.015570171,0.0037364298,0.008197296,3.84023,-1.4147617,2.2157977,-2.1293335,-0.20852806,113.10937,5.133313,0.35940206,0.30194482,0.16233921,0.09792614,inf,inf,inf,inf,1,1,1,1,2,2,2,2,3,1,1,1,0,0,0
201593651,201592620,20718320,41.1790497,-8.603618899999999,-0.46171936,0.83450365,-2.929586,-0.00045489697,0.0003034392,-2.4914742e-05,-0.23668921,-0.047462396,0.29510766,0.33382943,0.015570171,0.0037364298,0.008197296,2.200957,-2.6491039,2.4801993,-2.1176972,-0.20852806,113.10937,5.0950885,0.35000858,0.2968518,0.15516654,0.09627282,inf,inf,inf,inf,1,1,1,1,2,2,2,2,3,1,1,1,0,0,0
201703620,201702562,20718320,41.1790497,-8.603618899999999,-0.50163335,0.80540353,-2.8959365,-0.00045489697,0.0003034392,-2.4914742e-05,-0.19799714,-0.02930538,0.1608946,0.20406996,0.015570171,0.0037364298,0.008197296,2.4271374,-0.011221909,-2.7530947,-2.1071076,-0.20852806,113.10937,5.061439,0.35956165,0.3018959,0.16105822,0.098019846,inf,inf,inf,inf,1,1,1,1,2,2,2,2,3,1,1,1,0,0,0
201793526,201792515,20718320,41.1790497,-8.603618899999999,-0.5377328,0.7817069,-2.8744752,-0.00045489697,0.0003034392,-2.4914742e-05,-0.1897067,-0.0001521078,0.11246137,0.16087161,0.015570171,0.0037364298,0.008197296,-3.895078,2.454954,-2.1863651,-2.099247,-0.20852806,113.10937,5.039978,0.34928277,0.2961459,0.15367155,0.09619003,inf,inf,inf,inf,1,1,1,1,2,2,2,2,3,1,1,1,0,0,0
201893510,201892462,20718320,41.1790497,-8.603618899999999,-0.57443494,0.7606109,-2.851354,-0.00045489697,0.0003034392,-2.4914742e-05,-0.14571592,0.014902291,0.16109528,0.21371163,0.015570171,0.0037364298,0.008197296,4.3681474,-1.1651487,0.5603248,-2.0966368,-0.20852806,113.10937,5.016856,0.3579178,0.30052996,0.15895338,0.09775062,inf,inf,inf,inf,1,1,1,1,2,2,2,2,3,1,1,1,0,0,0
201993460,201992410,20718320,41.1790497,-8.603618899999999,-0.6111171,0.7437107,-2.8238986,-0.00045489697,0.0003034392,-2.4914742e-05,-0.1331745,0.052698195,0.16701998,0.22517748,0.015570171,0.0037364298,0.008197296,-1.9414508,-0.41868597,0.3509481,-2.0949402,-0.20852806,113.10937,4.989401,0.34853405,0.29546097,0.1519209,0.09611859,inf,inf,inf,inf,1,1,1,1,2,2,2,2,3,1,1,1,0,0,0
202093536,202092358,20718320,41.1790497,-8.603618899999999,-0.643211,0.73283356,-2.7936752,-0.00045489697,0.0003034392,-2.4914742e-05,-0.066041544,0.08495998,0.1943696,0.2566113,0.015570171,0.0037364298,0.008197296,1.9925729,3.1125271,-2.2708569,-2.0949943,-0.20852806,113.10937,4.959178,0.35712942,0.299852,0.15695202,0.097691715,inf,inf,inf,inf,1,1,1,1,2,2,2,2,3,1,1,1,0,0,0
202193483,202192305,20718320,41.1790497,-8.603618899999999,-0.67722934,0.7265471,-2.7635546,-0.00045489697,0.0003034392,-2.4914742e-05,-0.05051356,0.10604621,0.20959926,0.2758249,0.015570171,0.0037364298,0.008197296,2.6529791,-0.9063315,3.0247226,-2.0948362,-0.20852806,113.10937,4.929057,0.34777716,0.2948085,0.15032482,0.09607183,inf,inf,inf,inf,1,1,1,1,2,2,2,2,3,1,1,1,0,0,0
202293381,202292253,20718320,41.1790497,-8.603618899999999,-0.7074441,0.7258535,-2.7353806,-0.00045489697,0.0003034392,-2.4914742e-05,-0.024338914,0.13664098,0.1655253,0.2339421,0.015570171,0.0037364298,0.008197296,-1.7309772,2.4039264,-2.6591003,-2.0984268,-0.20852806,113.10937,4.900883,0.35633385,0.29919824,0.15524323,0.09764184,inf,inf,inf,inf,1,1,1,1,2,2,2,2,3,1,1,1,0,0,0
202403236,202402195,20718320,41.1790497,-8.603618899999999,-0.7430234,0.72622657,-2.706176,-0.00045489697,0.0003034392,-2.4914742e-05,0.00027854985,0.14711027,0.19434439,0.26426917,0.015570171,0.0037364298,0.008197296,2.1491103,-1.062239,1.4980617,-2.1043093,-0.20852806,113.10937,4.8716784,0.34781277,0.29481405,0.14957151,0.09622845,inf,inf,inf,inf,1,1,1,1,2,2,2,2,3,1,1,1,0,0,0
202493274,202492148,20718320,41.1790497,-8.603618899999999,-0.76796305,0.7299335,-2.6839406,-0.00045489697,0.0003034392,-2.4914742e-05,0.020911762,0.17226194,0.14582126,0.21541975,0.015570171,0.0037364298,0.008197296,0.21756136,0.122720756,-1.368513,-2.1116884,-0.20852806,113.10937,4.8494434,0.3555089,0.2985678,0.15391226,0.09761144,inf,inf,inf,inf,1,1,1,1,2,2,2,2,3,1,1,1,0,0,0
202603241,202602090,20718320,41.1790497,-8.603618899999999,-0.80251515,0.738202,-2.6576385,-0.00045489697,0.0003034392,-2.4914742e-05,0.0044222106,0.2153907,0.1767822,0.24669567,0.015570171,0.0037364298,0.008197296,0.14657491,0.5826011,1.1427703,-2.1246183,-0.20852806,113.10937,4.823141,0.34705713,0.29420695,0.14857529,0.09622702,inf,inf,inf,inf,1,1,1,1,2,2,2,2,3,1,1,1,0,0,0
202693214,202692043,20718320,41.1790497,-8.603618899999999,-0.82626903,0.7500351,-2.6384666,-0.00045489697,0.0003034392,-2.4914742e-05,-0.020469137,0.23405798,0.14895912,0.21760803,0.015570171,0.0037364298,0.008197296,-1.2494231,0.64150685,0.19154224,-2.1391134,-0.20852806,113.10937,4.8039694,0.35473314,0.29797265,0.15288216,0.09762064,inf,inf,inf,inf,1,1,1,1,2,2,2,2,3,1,1,1,0,0,0
202793143,202791990,20718320,41.1790497,-8.603618899999999,-0.8581452,0.7655076,-2.6172976,-0.00045489697,0.0003034392,-2.4914742e-05,-0.042795375,0.22015339,0.16788717,0.23475519,0.015570171,0.0037364298,0.008197296,2.134481,-2.364499,-1.2591444,-2.1529446,-0.20852806,113.10937,4.7828,0.34536415,0.2929233,0.14699705,0.09602333,inf,inf,inf,inf,1,1,1,1,2,2,2,2,3,1,1,1,0,0,0
202893121,202891938,20718320,41.1790497,-8.603618899999999,-0.88991916,0.78119516,-2.6009307,-0.00045489697,0.0003034392,-2.4914742e-05,-0.066429354,0.215149,0.117204964,0.17929533,0.015570171,0.0037364298,0.008197296,0.5709777,-1.0685881,0.07136845,-2.158052,-0.20852806,113.10937,4.7664332,0.35383695,0.29734498,0.15172704,0.09760727,inf,inf,inf,inf,1,1,1,1,2,2,2,2,3,1,1,1,0,0,0
202993077,202991889,20718320,41.1790497,-8.603618899999999,-0.92517215,0.79812413,-2.5869124,-0.00045489697,0.0003034392,-2.4914742e-05,-0.09718601,0.20111193,0.19337183,0.24779972,0.015570171,0.0037364298,0.008197296,-0.5359486,-0.8488973,0.0013652927,-2.152962,-0.20852806,113.10937,4.7524147,0.34428746,0.2921552,0.14598309,0.095985934,inf,inf,inf,inf,1,1,1,1,2,2,2,2,3,1,1,1,0,0,0
203103010,203101827,20718320,41.1790497,-8.603618899999999,-0.9618524,0.8193209,-2.5644946,-0.00045489697,0.0003034392,-2.4914742e-05,-0.1204239,0.217618,0.3267775,0.36947104,0.015570171,0.0037364298,0.008197296,0.009988509,-2.1797056,1.8337374,-2.145958,-0.20852806,113.10937,4.729997,0.35360396,0.297251,0.15099815,0.097770914,inf,inf,inf,inf,1,1,1,1,2,2,2,2,3,1,1,1,0,0,0
203192950,203191780,20718320,41.1790497,-8.603618899999999,-0.9935017,0.83937585,-2.5374916,-0.00045489697,0.0003034392,-2.4914742e-05,-0.07253001,0.27063543,0.40316752,0.43406054,0.015570171,0.0037364298,0.008197296,-1.6136805,1.3217763,-0.67869174,-2.1379545,-0.20852806,113.10937,4.7029943,0.34300208,0.291272,0.14449105,0.09594584,inf,inf,inf,inf,1,1,1,1,2,2,2,2,3,1,1,1,0,0,0
203302744,203301723,20718320,41.1790497,-8.603618899999999,-1.0230162,0.86845267,-2.5054176,-0.00045489697,0.0003034392,-2.4914742e-05,-0.030485522,0.30199993,0.38599077,0.40223214,0.015570171,0.0037364298,0.008197296,-1.9128419,1.2529211,2.5678802,-2.13363,-0.20852806,113.10937,4.6709204,0.35225978,0.2963808,0.14953716,0.09774333,inf,inf,inf,inf,1,1,1,1,2,2,2,2,3,1,1,1,0,0,0
203392839,203391676,20718320,41.1790497,-8.603618899999999,-1.0465741,0.89477915,-2.4839702,-0.00045489697,0.0003034392,-2.4914742e-05,0.060796175,0.31426486,0.350419,0.35305908,0.015570171,0.0037364298,0.008197296,0.46391496,-3.0737565,-1.8126863,-2.1331306,-0.20852806,113.10937,4.6494727,0.3417107,0.2903835,0.14359212,0.09591011,inf,inf,inf,inf,1,1,1,1,2,2,2,2,3,1,1,1,0,0,0
203502752,203501617,20718320,41.1790497,-8.603618899999999,-1.0653903,0.929819,-2.461695,-0.00045489697,0.0003034392,-2.4914742e-05,0.1263714,0.32636952,0.3778105,0.36455414,0.015570171,0.0037364298,0.008197296,4.159954,-1.3257372,2.9261882,-2.1352763,-0.20852806,113.10937,4.6271973,0.3509341,0.295506,0.1490723,0.097698845,inf,inf,inf,inf,1,1,1,1,2,2,2,2,3,1,1,1,0,0,0
203592584,203591570,20718320,41.1790497,-8.603618899999999,-1.0819243,0.95678526,-2.4402819,-0.00045489697,0.0003034392,-2.4914742e-05,0.15234601,0.34819975,0.39200485,0.3689896,0.015570171,0.0037364298,0.008197296,2.8774827,0.047064334,-0.8721898,-2.1368885,-0.20852806,113.10937,4.6057844,0.34045514,0.2895551,0.14316127,0.09587051,inf,inf,inf,inf,1,1,1,1,2,2,2,2,3,1,1,1,0,0,0
203692699,203691517,20718320,41.1790497,-8.603618899999999,-1.0929059,0.9869445,-2.4087033,-0.00045489697,0.0003034392,-2.4914742e-05,0.19338292,0.3347747,0.41446173,0.38448498,0.015570171,0.0037364298,0.008197296,-1.3263458,0.7574921,0.3385168,-2.1389785,-0.20852806,113.10937,4.574206,0.34878492,0.29403028,0.14785922,0.097477555,inf,inf,inf,inf,1,1,1,1,2,2,2,2,3,1,1,1,0,0,0
203802595,203801460,20718320,41.1790497,-8.603618899999999,-1.0996513,1.0211021,-2.3697803,-0.00045489697,0.0003034392,-2.4914742e-05,0.24352384,0.33128563,0.45274013,0.41791633,0.015570171,0.0037364298,0.008197296,-0.9882645,1.2826649,-0.3677015,-2.1444943,-0.20852806,113.10937,4.535283,0.3400976,0.28943005,0.14302745,0.09605186,inf,inf,inf,inf,1,1,1,1,2,2,2,2,3,1,1,1,0,0,0
203892527,203891412,20718320,41.1790497,-8.603618899999999,-1.0974256,1.0491246,-2.3357387,-0.00045489697,0.0003034392,-2.4914742e-05,0.27320528,0.29478288,0.4325213,0.3959627,0.015570171,0.0037364298,0.008197296,-0.18651952,-2.6621096,-1.8863448,-2.1481898,-0.20852806,113.10937,4.501241,0.34759858,0.293279,0.14727992,0.09746508,inf,inf,inf,inf,1,1,1,1,2,2,2,2,3,1,1,1,0,0,0
204002449,204001355,20718320,41.1790497,-8.603618899999999,-1.0972329,1.0859332,-2.2931738,-0.00045489697,0.0003034392,-2.4914742e-05,0.27589637,0.289863,0.44326338,0.40655237,0.015570171,0.0037364298,0.008197296,1.6907185,-0.06575866,-1.9775308,-2.1509504,-0.20852806,113.10937,4.4586763,0.33884275,0.2886085,0.14256106,0.09600598,inf,inf,inf,inf,1,1,1,1,2,2,2,2,3,1,1,1,0,0,0
204092365,204091308,20718320,41.1790497,-8.603618899999999,-1.0942236,1.1163471,-2.2571766,-0.00045489697,0.0003034392,-2.4914742e-05,0.28595588,0.29955834,0.4692962,0.43317974,0.015570171,0.0037364298,0.008197296,1.4159158,-0.5445116,1.8247854,-2.1484923,-0.20852806,113.10937,4.422679,0.3463253,0.29348612,0.14668359,0.09757586,inf,inf,inf,inf,1,1,1,1,2,2,2,2,3,1,1,1,0,0,0
204202364,204201249,20718320,41.1790497,-8.603618899999999,-1.0932199,1.1547538,-2.2106414,-0.00045489697,0.0003034392,-2.4914742e-05,0.26513788,0.27862203,0.47553745,0.44068524,0.015570171,0.0037364298,0.008197296,-0.60463315,-2.186781,1.1949668,-2.1430135,-0.20852806,113.10937,4.376144,0.33765104,0.28783852,0.14200608,0.09596375,inf,inf,inf,inf,1,1,1,1,2,2,2,2,3,1,1,1,0,0,0
204292241,204291202,20718320,41.1790497,-8.603618899999999,-1.0905993,1.1852868,-2.1678557,-0.00045489697,0.0003034392,-2.4914742e-05,0.26264238,0.26471275,0.48800847,0.4549305,0.015570171,0.0037364298,0.008197296,-0.693374,0.8827633,-1.9897255,-2.1417572,-0.20852806,113.10937,4.3333583,0.34511653,0.29272318,0.14601909,0.097532034,inf,inf,inf,inf,1,1,1,1,2,2,2,2,3,1,1,1,0,0,0
204402291,204401144,20718320,41.1790497,-8.603618899999999,-1.085875,1.222417,-2.11285,-0.00045489697,0.0003034392,-2.4914742e-05,0.23599704,0.23729694,0.52213496,0.49201226,0.015570171,0.0037364298,0.008197296,-1.8869063,-0.42208296,0.7698923,-2.1431282,-0.20852806,113.10937,4.2783527,0.336451,0.28707966,0.14123037,0.09591825,inf,inf,inf,inf,1,1,1,1,2,2,2,2,3,1,1,1,0,0,0
204502257,204501092,20718320,41.1790497,-8.603618899999999,-1.0783073,1.253537,-2.0609303,-0.00045489697,0.0003034392,-2.4914742e-05,0.24337476,0.20174521,0.5281567,0.50084543,0.015570171,0.0037364298,0.008197296,3.8903475,-0.5557664,0.9253675,-2.140512,-0.20852806,113.10937,4.226433,0.3447505,0.29162616,0.14568712,0.09752047,inf,inf,inf,inf,1,1,1,1,2,2,2,2,3,1,1,1,0,0,0
204592178,204591045,20718320,41.1790497,-8.603618899999999,-1.0701725,1.281512,-2.0144958,-0.00045489697,0.0003034392,-2.4914742e-05,0.21993107,0.1894978,0.51869243,0.49289918,0.015570171,0.0037364298,0.008197296,-1.8685806,2.5437427,-2.122879,-2.1377094,-0.20852806,113.10937,4.1799984,0.33448914,0.28667986,0.14018208,0.09582635,inf,inf,inf,inf,1,1,1,1,2,2,2,2,3,1,1,1,0,0,0
204702286,204700986,20718320,41.1790497,-8.603618899999999,-1.0556587,1.312568,-1.9583623,-0.00045489697,0.0003034392,-2.4914742e-05,0.22338368,0.1707484,0.53066975,0.50618976,0.015570171,0.0037364298,0.008197296,-2.6939378,1.3326315,-1.1855615,-2.1321597,-0.20852806,113.10937,4.123865,0.34357488,0.29093033,0.14520264,0.09748075,inf,inf,inf,inf,1,1,1,1,2,2,2,2,3,1,1,1,0,0,0
204792048,204790942,20718320,41.1790497,-8.603618899999999,-1.0465988,1.3363217,-1.9132868,-0.00045489697,0.0003034392,-2.4914742e-05,0.24484637,0.13694239,0.51117873,0.4871399,0.015570171,0.0037364298,0.008197296,-1.9436085,-1.2554202,-1.4756011,-2.1286135,-0.20852806,113.10937,4.078789,0.33335933,0.2860059,0.1398271,0.0957898,inf,inf,inf,inf,1,1,1,1,2,2,2,2,3,1,1,1,0,0,0
204902168,204900881,20718320,41.1790497,-8.603618899999999,-1.0329416,1.362018,-1.8550404,-0.00045489697,0.0003034392,-2.4914742e-05,0.24546243,0.11857216,0.59261405,0.5692275,0.015570171,0.0037364298,0.008197296,2.0184937,0.33581167,0.9669242,-2.1256127,-0.20852806,113.10937,4.020543,0.34243554,0.29027796,0.14502028,0.09744071,inf,inf,inf,inf,1,1,1,1,2,2,2,2,3,1,1,1,0,0,0
204992002,204990834,20718320,41.1790497,-8.603618899999999,-1.0190228,1.3825345,-1.7972963,-0.00045489697,0.0003034392,-2.4914742e-05,0.2729876,0.093916304,0.68687356,0.66470397,0.015570171,0.0037364298,0.008197296,2.4112306,-3.051129,-0.09725423,-2.1241603,-0.20852806,113.10937,3.9627988,0.33230606,0.2853909,0.13947429,0.095751636,inf,inf,inf,inf,1,1,1,1,2,2,2,2,3,1,1,1,0,0,0
205102172,205100776,20718320,41.1790497,-8.603618899999999,-0.9986968,1.4021856,-1.7190357,-0.00045489697,0.0003034392,-2.4914742e-05,0.2586708,0.049796667,0.7496499,0.72820413,0.015570171,0.0037364298,0.008197296,-2.039211,-0.9427954,-1.7191688,-2.1202326,-0.20852806,113.10937,3.8845382,0.3413628,0.28968376,0.14427744,0.09740106,inf,inf,inf,inf,1,1,1,1,2,2,2,2,3,1,1,1,0,0,0
205201875,205200723,20718320,41.1790497,-8.603618899999999,-0.97898924,1.4177804,-1.6509913,-0.00045489697,0.0003034392,-2.4914742e-05,0.24799545,0.019236641,0.6901963,0.6663178,0.015570171,0.0037364298,0.008197296,-3.4368672,-0.22302507,-0.65122396,-2.1149492,-0.20852806,113.10937,3.816494,0.33216074,0.28457144,0.13941097,0.09578212,inf,inf,inf,inf,1,1,1,1,2,2,2,2,3,1,1,1,0,0,0
205301991,205300670,20718320,41.1790497,-8.603618899999999,-0.9566849,1.4271417,-1.595389,-0.00045489697,0.0003034392,-2.4914742e-05,0.25736764,-0.017507622,0.52905846,0.5023277,0.015570171,0.0037364298,0.008197296,-0.06575581,-0.9541369,1.8385773,-2.1102667,-0.20852806,113.10937,3.7608914,0.3404176,0.28917748,0.14425348,0.097387224,inf,inf,inf,inf,1,1,1,1,2,2,2,2,3,1,1,1,0,0,0
205401704,205400618,20718320,41.1790497,-8.603618899999999,-0.93742716,1.4321717,-1.5591686,-0.00045489697,0.0003034392,-2.4914742e-05,0.23220739,-0.06759531,0.26717114,0.24001518,0.015570171,0.0037364298,0.008197296,0.2115597,-0.3427584,-2.5327702,-2.105365,-0.20852806,113.10937,3.7246711,0.33125094,0.2840948,0.14015691,0.095767245,inf,inf,inf,inf,1,1,1,1,2,2,2,2,3,1,1,1,0,0,0
205491662,205490570,20718320,41.1790497,-8.603618899999999,-0.9210874,1.432958,-1.5490024,-0.00045489697,0.0003034392,-2.4914742e-05,0.20935443,-0.07961853,0.039157256,0.010703761,0.015570171,0.0037364298,0.008197296,0.4074242,-0.78879595,-3.6457791,-2.1026006,-0.20852806,113.10937,3.714505,0.3386914,0.28902942,0.14524932,0.09733485,inf,inf,inf,inf,1,1,1,1,2,2,2,2,3,1,1,1,0,0,0
205601507,205600512,20718320,41.1790497,-8.603618899999999,-0.90201485,1.4334108,-1.5467318,-0.00045489697,0.0003034392,-2.4914742e-05,0.19880024,-0.12659279,-0.038935475,-0.0598425,0.015570171,0.0037364298,0.008197296,4.111629,-0.4986598,4.4945297,-2.1032321,-0.20852806,113.10937,3.7122345,0.33038077,0.28364834,0.14171067,0.09575455,inf,inf,inf,inf,1,1,1,1,2,2,2,2,3,1,1,1,0,0,0
205691398,205690465,20718320,41.1790497,-8.603618899999999,-0.8864728,1.4310158,-1.5491627,-0.00045489697,0.0003034392,-2.4914742e-05,0.17247611,-0.1282048,-0.06934506,-0.084584326,0.015570171,0.0037364298,0.008197296,1.7120075,-0.56150126,1.4038924,-2.1057084,-0.20852806,113.10937,3.7146654,0.33786353,0.28859246,0.14645135,0.097325526,inf,inf,inf,inf,1,1,1,1,2,2,2,2,3,1,1,1,0,0,0
205801402,205800407,20718320,41.1790497,-8.603618899999999,-0.8626873,1.4242976,-1.5426937,-0.00045489697,0.0003034392,-2.4914742e-05,0.17209168,-0.15363745,-0.0051874476,-0.009486361,0.015570171,0.0037364298,0.008197296,1.551336,1.3814828,-0.22839218,-2.1109583,-0.20852806,113.10937,3.7081962,0.32954335,0.28414366,0.14177856,0.09588378,inf,inf,inf,inf,1,1,1,1,2,2,2,2,3,1,1,1,0,0,0
205901423,205900354,20718320,41.1790497,-8.603618899999999,-0.8391562,1.4138539,-1.5342557,-0.00045489697,0.0003034392,-2.4914742e-05,0.16162144,-0.18625516,-0.009262707,-0.0057220613,0.015570171,0.0037364298,0.008197296,-3.2301767,0.20284036,-0.74100554,-2.114615,-0.20852806,113.10937,3.6997583,0.3378925,0.28883037,0.14637777,0.097497456,inf,inf,inf,inf,1,1,1,1,2,2,2,2,3,1,1,1,0,0,0
206001364,206000301,20718320,41.1790497,-8.603618899999999,-0.8154533,1.4024706,-1.5246332,-0.00045489697,0.0003034392,-2.4914742e-05,0.15132721,-0.19652152,0.04132677,0.050682563,0.015570171,0.0037364298,0.008197296,-3.124024,0.27501547,-1.9185133,-2.1159883,-0.20852806,113.10937,3.6901357,0.32864243,0.28367484,0.14137623,0.09583917,inf,inf,inf,inf,1,1,1,1,2,2,2,2,3,1,1,1,0,0,0
206101299,206100249,20718320,41.1790497,-8.603618899999999,-0.7959135,1.3872287,-1.5171343,-0.00045489697,0.0003034392,-2.4914742e-05,0.09019733,-0.23817144,0.047014456,0.058062878,0.015570171,0.0037364298,0.008197296,-2.269985,-0.4116,2.0100317,-2.1193097,-0.20852806,113.10937,3.6826367,0.33698693,0.28837264,0.14592904,0.0974533,inf,inf,inf,inf,1,1,1,1,2,2,2,2,3,1,1,1,0,0,0
206201214,206200196,20718320,41.1790497,-8.603618899999999,-0.7813934,1.3679832,-1.5117711,-0.00045489697,0.0003034392,-2.4914742e-05,0.030259136,-0.27675694,0.044120684,0.055868644,0.015570171,0.0037364298,0.008197296,2.4473588,-2.854691,3.4080622,-2.1222134,-0.20852806,113.10937,3.6772738,0.3278197,0.28324747,0.14105926,0.095810376,inf,inf,inf,inf,1,1,1,1,2,2,2,2,3,1,1,1,0,0,0
206301127,206300143,20718320,41.1790497,-8.603618899999999,-0.7745647,1.3452377,-1.5098479,-0.00045489697,0.0003034392,-2.4914742e-05,-0.049576852,-0.28879794,0.0169743,0.027777126,0.015570171,0.0037364298,0.008197296,-0.9398563,0.9280214,0.80992025,-2.1243448,-0.20852806,113.10937,3.6753504,0.3361737,0.28795677,0.14592373,0.09741498,inf,inf,inf,inf,1,1,1,1,2,2,2,2,3,1,1,1,0,0,0
206391154,206390096,20718320,41.1790497,-8.603618899999999,-0.7706376,1.3212782,-1.5072651,-0.00045489697,0.0003034392,-2.4914742e-05,-0.071655616,-0.28116012,0.013054118,0.02399328,0.015570171,0.0037364298,0.008197296,1.8239238,-1.047972,1.8165475,-2.1227841,-0.20852806,113.10937,3.6727676,0.32621533,0.2821949,0.14075564,0.09557934,inf,inf,inf,inf,1,1,1,1,2,2,2,2,3,1,1,1,0,0,0
206501112,206500037,20718320,41.1790497,-8.603618899999999,-0.7681285,1.294261,-1.5043194,-0.00045489697,0.0003034392,-2.4914742e-05,-0.05314748,-0.20805548,0.02121412,0.030727208,0.015570171,0.0037364298,0.008197296,1.3827882,0.7632993,-0.043635964,-2.1201477,-0.20852806,113.10937,3.669822,0.33538827,0.28756267,0.1458341,0.09738636,inf,inf,inf,inf,1,1,1,1,2,2,2,2,3,1,1,1,0,0,0
206601044,206599985,20718320,41.1790497,-8.603618899999999,-0.7624197,1.2721838,-1.5039672,-0.00045489697,0.0003034392,-2.4914742e-05,-0.06416848,-0.20565997,0.008804657,0.016707908,0.015570171,0.0037364298,0.008197296,-1.6671504,0.79809976,0.5929553,-2.119329,-0.20852806,113.10937,3.6694698,0.32615724,0.28242162,0.14068395,0.09572051,inf,inf,inf,inf,1,1,1,1,2,2,2,2,3,1,1,1,0,0,0
206701128,206699933,20718320,41.1790497,-8.603618899999999,-0.7572963,1.25065,-1.5062938,-0.00045489697,0.0003034392,-2.4914742e-05,-0.067413814,-0.19618645,-0.041019477,-0.03461536,0.015570171,0.0037364298,0.008197296,1.4805778,0.2797025,-4.805381,-2.1224654,-0.20852806,113.10937,3.6717963,0.33452457,0.28715187,0.14547135,0.0973443,inf,inf,inf,inf,1,1,1,1,2,2,2,2,3,1,1,1,0,0,0
206800975,206799879,20718320,41.1790497,-8.603618899999999,-0.7601097,1.2195129,-1.5113014,-0.00045489697,0.0003034392,-2.4914742e-05,-0.13114066,-0.26246,-0.06510817,-0.05952997,0.015570171,0.0037364298,0.008197296,1.392369,-0.18504493,-3.628555,-2.1275024,-0.20852806,113.10937,3.676804,0.32534644,0.28202128,0.14064787,0.09567327,inf,inf,inf,inf,1,1,1,1,2,2,2,2,3,1,1,1,0,0,0
206900907,206899827,20718320,41.1790497,-8.603618899999999,-0.77135456,1.1793946,-1.5204457,-0.00045489697,0.0003034392,-2.4914742e-05,-0.22269379,-0.35875335,-0.07106471,-0.0670712,0.015570171,0.0037364298,0.008197296,-2.2814903,-0.8311249,0.6354548,-2.129384,-0.20852806,113.10937,3.6859484,0.33372596,0.2867604,0.14564537,0.0972786,inf,inf,inf,inf,1,1,1,1,2,2,2,2,3,1,1,1,0,0,0
207001075,206999773,20718320,41.1790497,-8.603618899999999,-0.78937733,1.1297886,-1.5253336,-0.00045489697,0.0003034392,-2.4914742e-05,-0.24562964,-0.4240302,-0.044221092,-0.040241867,0.015570171,0.0037364298,0.008197296,1.7332351,0.50456476,-1.5892594,-2.128263,-0.20852806,113.10937,3.6908362,0.32451162,0.28161186,0.1408979,0.095582455,inf,inf,inf,inf,1,1,1,1,2,2,2,2,3,1,1,1,0,0,0
207100788,207099721,20718320,41.1790497,-8.603618899999999,-0.812055,1.0735637,-1.5246148,-0.00045489697,0.0003034392,-2.4914742e-05,-0.2853486,-0.49760887,0.025561735,0.030236918,0.015570171,0.0037364298,0.008197296,-0.5734985,-0.37174937,-3.7491388,-2.1247687,-0.20852806,113.10937,3.6901174,0.33289146,0.2863558,0.14569841,0.09718202,inf,inf,inf,inf,1,1,1,1,2,2,2,2,3,1,1,1,0,0,0
207200785,207199668,20718320,41.1790497,-8.603618899999999,-0.8324276,1.0112823,-1.5219303,-0.00045489697,0.0003034392,-2.4914742e-05,-0.32961756,-0.56734633,0.024123391,0.027862925,0.015570171,0.0037364298,0.008197296,2.1533222,-0.36784032,1.7218207,-2.1267319,-0.20852806,113.10937,3.6874328,0.3237988,0.28125194,0.14070462,0.09553443,inf,inf,inf,inf,1,1,1,1,2,2,2,2,3,1,1,1,0,0,0
207300620,207299615,20718320,41.1790497,-8.603618899999999,-0.8566558,0.9429955,-1.5205036,-0.00045489697,0.0003034392,-2.4914742e-05,-0.3681361,-0.65926534,0.0064469106,0.009043034,0.015570171,0.0037364298,0.008197296,1.2618191,-2.7232366,-1.6705357,-2.1316695,-0.20852806,113.10937,3.686006,0.33218172,0.28600386,0.14570948,0.09716141,inf,inf,inf,inf,1,1,1,1,2,2,2,2,3,1,1,1,0,0,0
207400649,207399564,20718320,41.1790497,-8.603618899999999,-0.8877177,0.8614037,-1.5228943,-0.00045489697,0.0003034392,-2.4914742e-05,-0.4316085,-0.7479136,-0.024387117,-0.022817146,0.015570171,0.0037364298,0.008197296,-0.33646137,1.6123638,-1.6816252,-2.1356628,-0.20852806,113.10937,3.688397,0.32314044,0.28091422,0.14106955,0.09550302,inf,inf,inf,inf,1,1,1,1,2,2,2,2,3,1,1,1,0,0,0
207500511,207499509,20718320,41.1790497,-8.603618899999999,-0.92541283,0.77320236,-1.5269618,-0.00045489697,0.0003034392,-2.4914742e-05,-0.49069858,-0.80562955,-0.011017461,-0.010244944,0.015570171,0.0037364298,0.008197296,2.7249315,-3.3038304,2.4786558,-2.138238,-0.20852806,113.10937,3.6924644,0.33154532,0.28567344,0.14633837,0.09711611,inf,inf,inf,inf,1,1,1,1,2,2,2,2,3,1,1,1,0,0,0
207600459,207599456,20718320,41.1790497,-8.603618899999999,-0.9652192,0.6812432,-1.5304179,-0.00045489697,0.0003034392,-2.4914742e-05,-0.5249711,-0.7729491,-0.059038922,-0.057763033,0.015570171,0.0037364298,0.008197296,0.14373773,1.8547124,-1.0166606,-2.1313186,-0.20852806,113.10937,3.6959205,0.3225198,0.280606,0.14151877,0.09546843,inf,inf,inf,inf,1,1,1,1,2,2,2,2,3,1,1,1,0,0,0
207700385,207699403,20718320,41.1790497,-8.603618899999999,-1.0100079,0.59541124,-1.5321558,-0.00045489697,0.0003034392,-2.4914742e-05,-0.55253017,-0.69592917,-0.024274414,-0.022608016,0.015570171,0.0037364298,0.008197296,0.89766145,0.3644456,0.13171658,-2.1239815,-0.20852806,113.10937,3.6976583,0.3309445,0.2853639,0.14631523,0.097072646,inf,inf,inf,inf,1,1,1,1,2,2,2,2,3,1,1,1,0,0,0
207800391,207799350,20718320,41.1790497,-8.603618899999999,-1.0539824,0.51644737,-1.5350407,-0.00045489697,0.0003034392,-2.4914742e-05,-0.6136168,-0.58315414,-0.03153464,-0.030325474,0.015570171,0.0037364298,0.008197296,1.2818463,1.6876134,2.0915272,-2.1190014,-0.20852806,113.10937,3.7005434,0.3219561,0.28028864,0.14086778,0.09540141,inf,inf,inf,inf,1,1,1,1,2,2,2,2,3,1,1,1,0,0,0
207900284,207899299,20718320,41.1790497,-8.603618899999999,-1.1067111,0.45220977,-1.5372205,-0.00045489697,0.0003034392,-2.4914742e-05,-0.7181885,-0.44877285,-0.02770831,-0.027072897,0.015570171,0.0037364298,0.008197296,0.39726478,-0.2211683,0.7991928,-2.1143174,-0.20852806,113.10937,3.702723,0.3303875,0.28505373,0.1455522,0.097002774,inf,inf,inf,inf,1,1,1,1,2,2,2,2,3,1,1,1,0,0,0
208000313,207999244,20718320,41.1790497,-8.603618899999999,-1.1737857,0.3934638,-1.5405923,-0.00045489697,0.0003034392,-2.4914742e-05,-0.8265645,-0.2705843,-0.050144825,-0.05061151,0.015570171,0.0037364298,0.008197296,-3.594488,-1.6505352,-2.6465917,-2.1114068,-0.20852806,113.10937,3.7060947,0.32141587,0.27998874,0.14077505,0.095340446,inf,inf,inf,inf,1,1,1,1,2,2,2,2,3,1,1,1,0,0,0
208100202,208099191,20718320,41.1790497,-8.603618899999999,-1.2582009,0.35338852,-1.5465424,-0.00045489697,0.0003034392,-2.4914742e-05,-1.0094826,-0.06722443,-0.028316854,-0.029752428,0.015570171,0.0037364298,0.008197296,-3.2952518,5.9056625,-2.2924826,-2.115325,-0.20852806,113.10937,3.712045,0.32985178,0.28475875,0.14598823,0.09693079,inf,inf,inf,inf,1,1,1,1,2,2,2,2,3,1,1,1,0,0,0
208200172,208199138,20718320,41.1790497,-8.603618899999999,-1.3626609,0.32147697,-1.5518559,-0.00045489697,0.0003034392,-2.4914742e-05,-1.1853772,0.111027315,-0.03955017,-0.041122388,0.015570171,0.0037364298,0.008197296,-0.013705207,4.102315,0.53581774,-2.1164567,-0.20852806,113.10937,3.7173586,0.3208827,0.27970222,0.14191642,0.09527468,inf,inf,inf,inf,1,1,1,1,2,2,2,2,3,1,1,1,0,0,0
208300048,208299085,20718320,41.1790497,-8.603618899999999,-1.4866787,0.30924726,-1.555667,-0.00045489697,0.0003034392,-2.4914742e-05,-1.374437,0.2619584,-0.015091782,-0.016542595,0.015570171,0.0037364298,0.008197296,-3.1591747,3.5287926,1.091557,-2.1255689,-0.20852806,113.10937,3.7211695,0.32933235,0.2844744,0.14806247,0.09688535,inf,inf,inf,inf,1,1,1,1,2,2,2,2,3,1,1,1,0,0,0
208400050,208399032,20718320,41.1790497,-8.603618899999999,-1.628593,0.30000585,-1.5533149,-0.00045489697,0.0003034392,-2.4914742e-05,-1.4863727,0.3762205,0.035697456,0.035365134,0.015570171,0.0037364298,0.008197296,-0.71263695,-0.84631586,0.309788,-2.1328764,-0.20852806,113.10937,3.7188175,0.32037303,0.27942502,0.14421809,0.09524631,inf,inf,inf,inf,1,1,1,1,2,2,2,2,3,1,1,1,0,0,0
208500018,208498980,20718320,41.1790497,-8.603618899999999,-1.783446,0.30434042,-1.5503153,-0.00045489697,0.0003034392,-2.4914742e-05,-1.574099,0.4605313,0.03945187,0.040181503,0.015570171,0.0037364298,0.008197296,1.9011866,0.5526037,0.053880904,-2.1394286,-0.20852806,113.10937,3.715818,0.3288422,0.28419927,0.14989191,0.09686515,inf,inf,inf,inf,1,1,1,1,2,2,2,2,3,1,1,1,0,0,0
208600211,208598926,20718320,41.1790497,-8.603618899999999,-1.9454006,0.30068478,-1.5470533,-0.00045489697,0.0003034392,-2.4914742e-05,-1.6079693,0.48249534,0.057642575,0.058640324,0.015570171,0.0037364298,0.008197296,-0.0045701414,3.0580637,-0.41942286,-2.1408877,-0.20852806,113.10937,3.712556,0.3199009,0.27915636,0.14501841,0.0952215,inf,inf,inf,inf,1,1,1,1,2,2,2,2,3,1,1,1,0,0,0
208699898,208698873,20718320,41.1790497,-8.603618899999999,-2.1062567,0.3033113,-1.5439775,-0.00045489697,0.0003034392,-2.4914742e-05,-1.5810221,0.48883203,0.0022624137,0.0032468198,0.015570171,0.0037364298,0.008197296,-4.0475583,-1.244443,-1.8155725,-2.1421351,-0.20852806,113.10937,3.70948,0.32838565,0.2839365,0.14975865,0.09684157,inf,inf,inf,inf,1,1,1,1,2,2,2,2,3,1,1,1,0,0,0
208799907,208798820,20718320,41.1790497,-8.603618899999999,-2.2693956,0.29702002,-1.5418205,-0.00045489697,0.0003034392,-2.4914742e-05,-1.4732296,0.45249993,0.0114384135,0.013311326,0.015570171,0.0037364298,0.008197296,-1.6420733,-0.38083786,-1.2495117,-2.1403556,-0.20852806,113.10937,3.707323,0.3194261,0.27887875,0.14391047,0.095167026,inf,inf,inf,inf,1,1,1,1,2,2,2,2,3,1,1,1,0,0,0
208899850,208898767,20718320,41.1790497,-8.603618899999999,-2.4209433,0.29451537,-1.541545,-0.00045489697,0.0003034392,-2.4914742e-05,-1.3198473,0.41058856,-0.036367834,-0.033690814,0.015570171,0.0037364298,0.008197296,-2.2909436,-0.17025286,-3.6675062,-2.1346436,-0.20852806,113.10937,3.7070475,0.32791343,0.28366518,0.14744681,0.096742176,inf,inf,inf,inf,1,1,1,1,2,2,2,2,3,1,1,1,0,0,0
208999814,208998714,20718320,41.1790497,-8.603618899999999,-2.5677953,0.28938785,-1.5432389,-0.00045489697,0.0003034392,-2.4914742e-05,-1.1570157,0.39291242,-0.0047503444,-0.0009237428,0.015570171,0.0037364298,0.008197296,1.3507001,1.5697991,-2.2162123,-2.1221936,-0.20852806,113.10937,3.7087414,0.31897226,0.27861363,0.14132768,0.09503664,inf,inf,inf,inf,1,1,1,1,2,2,2,2,3,1,1,1,0,0,0
209099773,209098661,20718320,41.1790497,-8.603618899999999,-2.6979005,0.29072353,-1.5421993,-0.00045489697,0.0003034392,-2.4914742e-05,-0.97518516,0.37672606,0.023452535,0.02811737,0.015570171,0.0037364298,0.008197296,4.6144753,0.18798006,0.98114616,-2.1205347,-0.20852806,113.10937,3.7077017,0.32746372,0.28340358,0.14519544,0.09659859,inf,inf,inf,inf,1,1,1,1,2,2,2,2,3,1,1,1,0,0,0
209199712,209198608,20718320,41.1790497,-8.603618899999999,-2.8273468,0.2968527,-1.5402831,-0.00045489697,0.0003034392,-2.4914742e-05,-0.8397825,0.3429593,0.024845753,0.029623576,0.015570171,0.0037364298,0.008197296,4.759006,-1.0050429,2.9287086,-2.1296167,-0.20852806,113.10937,3.7057858,0.31850618,0.2783567,0.13960329,0.09491446,inf,inf,inf,inf,1,1,1,1,2,2,2,2,3,1,1,1,0,0,0
209299690,209298555,20718320,41.1790497,-8.603618899999999,-2.9419992,0.30769137,-1.5391499,-0.00045489697,0.0003034392,-2.4914742e-05,-0.7262399,0.31165534,0.0073764096,0.011961782,0.015570171,0.0037364298,0.008197296,1.1951333,2.389048,0.2435722,-2.1388044,-0.20852806,113.10937,3.7046523,0.32697776,0.28314906,0.14404984,0.096501395,inf,inf,inf,inf,1,1,1,1,2,2,2,2,3,1,1,1,0,0,0
209400292,209398502,20718320,41.1790497,-8.603618899999999,-3.0571198,0.31397787,-1.5391577,-0.00045489697,0.0003034392,-2.4914742e-05,-0.61436194,0.2177424,-0.049851198,-0.04411357,0.015570171,0.0037364298,0.008197296,-2.0375593,-2.914347,0.08831476,-2.1419988,-0.20852806,113.10937,3.7046604,0.31801584,0.27809593,0.1391978,0.09483901,inf,inf,inf,inf,1,1,1,1,2,2,2,2,3,1,1,1,0,0,0
209499519,209498449,20718320,41.1790497,-8.603618899999999,-3.1549773,0.31537446,-1.5420223,-0.00045489697,0.0003034392,-2.4914742e-05,-0.47858846,0.12640193,-0.047561146,-0.040802676,0.015570171,0.0037364298,0.008197296,-0.3159771,-1.4987679,2.2598312,-2.1379495,-0.20852806,113.10937,3.7075248,0.32647964,0.28288275,0.14405812,0.09643339,inf,inf,inf,inf,1,1,1,1,2,2,2,2,3,1,1,1,0,0,0
209599435,209598395,20718320,41.1790497,-8.603618899999999,-3.2396963,0.31530663,-1.5429695,-0.00045489697,0.0003034392,-2.4914742e-05,-0.32345042,0.031907395,-0.034618273,-0.024929581,0.015570171,0.0037364298,0.008197296,-0.73462814,-2.5140796,0.3323798,-2.1328309,-0.20852806,113.10937,3.708472,0.3175303,0.27782673,0.13938816,0.09476785,inf,inf,inf,inf,1,1,1,1,2,2,2,2,3,1,1,1,0,0,0
209700090,209698342,20718320,41.1790497,-8.603618899999999,-3.3000522,0.30968496,-1.5439829,-0.00045489697,0.0003034392,-2.4914742e-05,-0.14229901,-0.062667824,-0.055195745,-0.043101773,0.015570171,0.0037364298,0.008197296,1.2637867,-2.2736092,0.58469236,-2.130696,-0.20852806,113.10937,3.7094855,0.32598925,0.28261518,0.1444922,0.096356146,inf,inf,inf,inf,1,1,1,1,2,2,2,2,3,1,1,1,0,0,0
209799406,209798289,20718320,41.1790497,-8.603618899999999,-3.3505447,0.30586746,-1.5456332,-0.00045489697,0.0003034392,-2.4914742e-05,0.0132017,-0.14828992,-0.03929649,-0.025708532,0.015570171,0.0037364298,0.008197296,-0.78728527,-1.6539767,0.58520603,-2.1258736,-0.20852806,113.10937,3.7111359,0.31703183,0.2775537,0.14040153,0.09470647,inf,inf,inf,inf,1,1,1,1,2,2,2,2,3,1,1,1,0,0,0
209899311,209898236,20718320,41.1790497,-8.603618899999999,-3.3797088,0.29717138,-1.5454775,-0.00045489697,0.0003034392,-2.4914742e-05,0.16381095,-0.22514695,-0.006623493,0.007575493,0.015570171,0.0037364298,0.008197296,-0.8360389,-1.7066206,-0.39248028,-2.1190596,-0.20852806,113.10937,3.71098,0.32549444,0.2823434,0.14593497,0.09629915,inf,inf,inf,inf,1,1,1,1,2,2,2,2,3,1,1,1,0,0,0
209999884,209998183,20718320,41.1790497,-8.603618899999999,-3.3958037,0.289942,-1.5417199,-0.00045489697,0.0003034392,-2.4914742e-05,0.25805953,-0.2551378,0.034184173,0.04965922,0.015570171,0.0037364298,0.008197296,-1.648169,-1.0083811,-0.93463886,-2.1140332,-0.20852806,113.10937,3.7072225,0.3165638,0.2772873,0.14165086,0.094661266,inf,inf,inf,inf,1,1,1,1,2,2,2,2,3,1,1,1,0,0,0
210099197,210098130,20718320,41.1790497,-8.603618899999999,-3.3976371,0.28015074,-1.5366877,-0.00045489697,0.0003034392,-2.4914742e-05,0.31774905,-0.27073908,0.020607706,0.03685236,0.015570171,0.0037364298,0.008197296,-2.2466612,-0.70567834,-1.1558867,-2.1126833,-0.20852806,113.10937,3.7021904,0.3250346,0.28207907,0.14696151,0.09626315,inf,inf,inf,inf,1,1,1,1,2,2,2,2,3,1,1,1,0,0,0
210199109,210198077,20718320,41.1790497,-8.603618899999999,-3.3978841,0.2811518,-1.5343945,-0.00045489697,0.0003034392,-2.4914742e-05,0.3218167,-0.25353038,0.03428598,0.049207035,0.015570171,0.0037364298,0.008197296,1.9407029,-0.46505117,1.125077,-2.1118457,-0.20852806,113.10937,3.699897,0.31613263,0.27703866,0.14222124,0.094634555,inf,inf,inf,inf,1,1,1,1,2,2,2,2,3,1,1,1,0,0,0
210299870,210298023,20718320,41.1790497,-8.603618899999999,-3.3942726,0.28542975,-1.534715,-0.00045489697,0.0003034392,-2.4914742e-05,0.29284844,-0.17740622,0.0070853294,0.018875388,0.015570171,0.0037364298,0.008197296,0.08685864,2.7074437,-2.4117284,-2.11442,-0.20852806,113.10937,3.7002177,0.32462674,0.28183505,0.14694469,0.09624618,inf,inf,inf,inf,1,1,1,1,2,2,2,2,3,1,1,1,0,0,0
210399065,210397970,20718320,41.1790497,-8.603618899999999,-3.3933764,0.29974365,-1.5375612,-0.00045489697,0.0003034392,-2.4914742e-05,0.23342836,-0.14127119,0.0078797825,0.015270808,0.015570171,0.0037364298,0.008197296,-2.1883407,0.2897023,-0.28991985,-2.1188364,-0.20852806,113.10937,3.7030637,0.31570992,0.2767776,0.14160644,0.09459534,inf,inf,inf,inf,1,1,1,1,2,2,2,2,3,1,1,1,0,0,0
210499042,210497917,20718320,41.1790497,-8.603618899999999,-3.3898714,0.31536064,-1.5418881,-0.00045489697,0.0003034392,-2.4914742e-05,0.22119625,-0.11996416,-0.027765553,-0.024566146,0.015570171,0.0037364298,0.008197296,1.9310589,-0.9219667,1.3581557,-2.1239247,-0.20852806,113.10937,3.7073908,0.32422873,0.28157914,0.14584692,0.09620099,inf,inf,inf,inf,1,1,1,1,2,2,2,2,3,1,1,1,0,0,0
210599589,210597863,20718320,41.1790497,-8.603618899999999,-3.3792753,0.33298194,-1.5446137,-0.00045489697,0.0003034392,-2.4914742e-05,0.26066056,-0.08537501,0.025533361,0.025799148,0.015570171,0.0037364298,0.008197296,2.110143,2.633315,-2.5755541,-2.1294956,-0.20852806,113.10937,3.7101164,0.3152992,0.2765158,0.14069918,0.09456794,inf,inf,inf,inf,1,1,1,1,2,2,2,2,3,1,1,1,0,0,0
210698944,210697810,20718320,41.1790497,-8.603618899999999,-3.3595786,0.34638324,-1.5462916,-0.00045489697,0.0003034392,-2.4914742e-05,0.28945103,-0.10381978,-0.001488168,-0.003418637,0.015570171,0.0037364298,0.008197296,-1.8682413,1.8242725,-0.86688703,-2.1303172,-0.20852806,113.10937,3.7117941,0.32383454,0.28132215,0.14533451,0.09617232,inf,inf,inf,inf,1,1,1,1,2,2,2,2,3,1,1,1,0,0,0
210798972,210797757,20718320,41.1790497,-8.603618899999999,-3.3323684,0.36092126,-1.5459241,-0.00045489697,0.0003034392,-2.4914742e-05,0.33142617,-0.11228436,0.030134438,0.026992401,0.015570171,0.0037364298,0.008197296,-0.27424407,2.690802,-2.6988235,-2.1263137,-0.20852806,113.10937,3.7114267,0.31490007,0.2762634,0.14041214,0.094530076,inf,inf,inf,inf,1,1,1,1,2,2,2,2,3,1,1,1,0,0,0
210899583,210897704,20718320,41.1790497,-8.603618899999999,-3.300504,0.37233213,-1.5433278,-0.00045489697,0.0003034392,-2.4914742e-05,0.33171588,-0.1058986,0.04629054,0.042687204,0.015570171,0.0037364298,0.008197296,-0.1215274,2.2026246,-2.4252715,-2.1238637,-0.20852806,113.10937,3.7088304,0.3234475,0.28107384,0.14515138,0.09613827,inf,inf,inf,inf,1,1,1,1,2,2,2,2,3,1,1,1,0,0,0
210998739,210997650,20718320,41.1790497,-8.603618899999999,-3.2743256,0.39004213,-1.540932,-0.00045489697,0.0003034392,-2.4914742e-05,0.2898405,-0.0766601,0.034675695,0.030548733,0.015570171,0.0037364298,0.008197296,-2.752633,-1.2292188,-2.329521,-2.1251025,-0.20852806,113.10937,3.7064347,0.3145065,0.2760186,0.13999167,0.09450458,inf,inf,inf,inf,1,1,1,1,2,2,2,2,3,1,1,1,0,0,0
211098835,211097597,20718320,41.1790497,-8.603618899999999,-3.2520368,0.40794417,-1.5398284,-0.00045489697,0.0003034392,-2.4914742e-05,0.25962535,-0.04571973,0.039311793,0.034821805,0.015570171,0.0037364298,0.008197296,2.3383648,-2.4855602,0.8517339,-2.1273336,-0.20852806,113.10937,3.7053308,0.32306322,0.28083342,0.1444304,0.09611287,inf,inf,inf,inf,1,1,1,1,2,2,2,2,3,1,1,1,0,0,0
211198751,211197544,20718320,41.1790497,-8.603618899999999,-3.230205,0.4289591,-1.5405968,-0.00045489697,0.0003034392,-2.4914742e-05,0.24212922,-0.021389073,-0.020749763,-0.025568863,0.015570171,0.0037364298,0.008197296,2.5960114,-0.17126842,1.4116821,-2.1314378,-0.20852806,113.10937,3.7060995,0.31414038,0.27577075,0.13923807,0.094478734,inf,inf,inf,inf,1,1,1,1,2,2,2,2,3,1,1,1,0,0,0
211298556,211297491,20718320,41.1790497,-8.603618899999999,-3.2073896,0.44743204,-1.5407732,-0.00045489697,0.0003034392,-2.4914742e-05,0.25688243,-0.025658645,0.010586292,0.0055437307,0.015570171,0.0037364298,0.008197296,4.017288,-0.80704355,1.7226685,-2.1294172,-0.20852806,113.10937,3.7062757,0.32270533,0.28058147,0.14396143,0.09608557,inf,inf,inf,inf,1,1,1,1,2,2,2,2,3,1,1,1,0,0,0
211398531,211397439,20718320,41.1790497,-8.603618899999999,-3.181438,0.46430346,-1.5401226,-0.00045489697,0.0003034392,-2.4914742e-05,0.24710582,-0.015760465,-0.0015905887,-0.006315668,0.015570171,0.0037364298,0.008197296,0.3712746,-0.3884174,1.7908988,-2.124545,-0.20852806,113.10937,3.705625,0.31374392,0.27549344,0.13891114,0.09444525,inf,inf,inf,inf,1,1,1,1,2,2,2,2,3,1,1,1,0,0,0
211498580,211497384,20718320,41.1790497,-8.603618899999999,-3.1549728,0.47832856,-1.5377852,-0.00045489697,0.0003034392,-2.4914742e-05,0.2355513,-0.005073642,-0.008859474,-0.01300673,0.015570171,0.0037364298,0.008197296,-0.6452456,0.3908407,0.39050317,-2.1217566,-0.20852806,113.10937,3.7032876,0.3223101,0.2803077,0.14352232,0.09604545,inf,inf,inf,inf,1,1,1,1,2,2,2,2,3,1,1,1,0,0,0
211598523,211597331,20718320,41.1790497,-8.603618899999999,-3.1348615,0.49731025,-1.5372992,-0.00045489697,0.0003034392,-2.4914742e-05,0.19640042,0.019940805,-0.008739448,-0.012978718,0.015570171,0.0037364298,0.008197296,-3.7822788,3.267986,-1.0835655,-2.1194444,-0.20852806,113.10937,3.7028017,0.3133972,0.2752408,0.13869704,0.0944254,inf,inf,inf,inf,1,1,1,1,2,2,2,2,3,1,1,1,0,0,0
211698318,211697277,20718320,41.1790497,-8.603618899999999,-3.118545,0.51558095,-1.5378021,-0.00045489697,0.0003034392,-2.4914742e-05,0.14373165,0.056239985,0.010785545,0.0064379117,0.015570171,0.0037364298,0.008197296,-0.82892686,3.2563305,0.01163804,-2.1187892,-0.20852806,113.10937,3.7033048,0.32197204,0.28006032,0.14318535,0.09603524,inf,inf,inf,inf,1,1,1,1,2,2,2,2,3,1,1,1,0,0,0
211798398,211797224,20718320,41.1790497,-8.603618899999999,-3.1077995,0.5349602,-1.5372082,-0.00045489697,0.0003034392,-2.4914742e-05,0.08955948,0.034151312,0.024159499,0.020221295,0.015570171,0.0037364298,0.008197296,2.541729,-0.8897822,-0.07568884,-2.1136613,-0.20852806,113.10937,3.7027106,0.31294796,0.27493823,0.13809392,0.094385974,inf,inf,inf,inf,1,1,1,1,2,2,2,2,3,1,1,1,0,0,0
211898200,211897170,20718320,41.1790497,-8.603618899999999,-3.103309,0.5488038,-1.5391836,-0.00045489697,0.0003034392,-2.4914742e-05,0.004947425,-0.00096791505,-0.022114096,-0.025537396,0.015570171,0.0037364298,0.008197296,-2.61873,1.6427798,-0.10636875,-2.1120367,-0.20852806,113.10937,3.7046862,0.32151628,0.27976117,0.14255996,0.09600195,inf,inf,inf,inf,1,1,1,1,2,2,2,2,3,1,1,1,0,0,0
211998136,211997117,20718320,41.1790497,-8.603618899999999,-3.1089175,0.55213153,-1.5417078,-0.00045489697,0.0003034392,-2.4914742e-05,-0.12805532,-0.12508798,-0.03515309,-0.036016308,0.015570171,0.0037364298,0.008197296,2.3896258,0.025841214,2.756086,-2.1102772,-0.20852806,113.10937,3.7072103,0.31252316,0.2746626,0.13794208,0.094366334,inf,inf,inf,inf,1,1,1,1,2,2,2,2,3,1,1,1,0,0,0
212098182,212097068,20718320,41.1790497,-8.603618899999999,-3.1286507,0.53832966,-1.5457494,-0.00045489697,0.0003034392,-2.4914742e-05,-0.30909646,-0.30007383,-0.065247215,-0.064023174,0.015570171,0.0037364298,0.008197296,-5.703678,-3.8467588,-1.099643,-2.1116095,-0.20852806,113.10937,3.711252,0.32109636,0.27949,0.14265446,0.09596637,inf,inf,inf,inf,1,1,1,1,2,2,2,2,3,1,1,1,0,0,0
212198043,212197010,20718320,41.1790497,-8.603618899999999,-3.16191,0.5032207,-1.5480506,-0.00045489697,0.0003034392,-2.4914742e-05,-0.48472044,-0.5109745,-0.054492366,-0.049092516,0.015570171,0.0037364298,0.008197296,-5.0759745,-1.1472915,4.787476,-2.1146927,-0.20852806,113.10937,3.7135532,0.31200308,0.2743485,0.1382365,0.09430344,inf,inf,inf,inf,1,1,1,1,2,2,2,2,3,1,1,1,0,0,0
212297886,212296957,20718320,41.1790497,-8.603618899999999,-3.2092993,0.446914,-1.5479335,-0.00045489697,0.0003034392,-2.4914742e-05,-0.5882524,-0.70780265,-0.044249732,-0.035365384,0.015570171,0.0037364298,0.008197296,-3.670947,-3.5408974,-1.3978181,-2.1107266,-0.20852806,113.10937,3.7134361,0.32056558,0.279176,0.14349864,0.09591565,inf,inf,inf,inf,1,1,1,1,2,2,2,2,3,1,1,1,0,0,0
212397940,212396903,20718320,41.1790497,-8.603618899999999,-3.2597558,0.37482196,-1.5457096,-0.00045489697,0.0003034392,-2.4914742e-05,-0.65958756,-0.8390519,0.007075367,0.01803581,0.015570171,0.0037364298,0.008197296,-2.4960105,-2.1372771,-0.09765379,-2.1050224,-0.20852806,113.10937,3.7112122,0.31149027,0.2740433,0.13934514,0.09429004,inf,inf,inf,inf,1,1,1,1,2,2,2,2,3,1,1,1,0,0,0
212497896,212496856,20718320,41.1790497,-8.603618899999999,-3.3157713,0.29067495,-1.5431776,-0.00045489697,0.0003034392,-2.4914742e-05,-0.73370117,-0.93457854,0.007507713,0.01948685,0.015570171,0.0037364298,0.008197296,-3.629288,0.64816993,2.507563,-2.096898,-0.20852806,113.10937,3.7086802,0.32004398,0.27887133,0.14443322,0.095914416,inf,inf,inf,inf,1,1,1,1,2,2,2,2,3,1,1,1,0,0,0
212597823,212596796,20718320,41.1790497,-8.603618899999999,-3.3662305,0.20016155,-1.5451317,-0.00045489697,0.0003034392,-2.4914742e-05,-0.69097364,-0.9407051,-0.05995471,-0.049430136,0.015570171,0.0037364298,0.008197296,-1.1282344,3.9967709,-4.960891,-2.0911932,-0.20852806,113.10937,3.7106342,0.31095785,0.27374718,0.13986741,0.0942907,inf,inf,inf,inf,1,1,1,1,2,2,2,2,3,1,1,1,0,0,0
212697896,212696743,20718320,41.1790497,-8.603618899999999,-3.4147708,0.10938668,-1.5530809,-0.00045489697,0.0003034392,-2.4914742e-05,-0.65826887,-0.90448076,-0.07895845,-0.07030958,0.015570171,0.0037364298,0.008197296,1.622313,4.95052,-0.54003155,-2.0883183,-0.20852806,113.10937,3.7185836,0.31952357,0.27857915,0.14471096,0.09587741,inf,inf,inf,inf,1,1,1,1,2,2,2,2,3,1,1,1,0,0,0
212797825,212796689,20718320,41.1790497,-8.603618899999999,-3.4555728,0.019736106,-1.5612949,-0.00045489697,0.0003034392,-2.4914742e-05,-0.5711545,-0.841952,-0.077788,-0.07114344,0.015570171,0.0037364298,0.008197296,2.8371005,-0.77116275,-0.8344002,-2.0832493,-0.20852806,113.10937,3.7267976,0.31044528,0.27346238,0.13945736,0.09421034,inf,inf,inf,inf,1,1,1,1,2,2,2,2,3,1,1,1,0,0,0
212897678,212896635,20718320,41.1790497,-8.603618899999999,-3.4913847,-0.06294558,-1.5690178,-0.00045489697,0.0003034392,-2.4914742e-05,-0.46852705,-0.7483723,-0.039283402,-0.034328166,0.015570171,0.0037364298,0.008197296,4.0238266,-0.2526219,0.012386528,-2.0813763,-0.20852806,113.10937,3.7345204,0.31902957,0.27829823,0.14372697,0.09579196,inf,inf,inf,inf,1,1,1,1,2,2,2,2,3,1,1,1,0,0,0
212997721,212996582,20718320,41.1790497,-8.603618899999999,-3.5163062,-0.13864769,-1.5787635,-0.00045489697,0.0003034392,-2.4914742e-05,-0.36913848,-0.6067734,-0.115995094,-0.11294113,0.015570171,0.0037364298,0.008197296,-1.9820553,2.0359635,1.1742104,-2.0884686,-0.20852806,113.10937,3.744266,0.3099003,0.2731727,0.13814403,0.09410027,inf,inf,inf,inf,1,1,1,1,2,2,2,2,3,1,1,1,0,0,0
213097740,213096528,20718320,41.1790497,-8.603618899999999,-3.5311933,-0.20092162,-1.590975,-0.00045489697,0.0003034392,-2.4914742e-05,-0.2106454,-0.4337444,-0.10551553,-0.10460248,0.015570171,0.0037364298,0.008197296,-0.97023207,2.9450638,-1.621501,-2.0934389,-0.20852806,113.10937,3.7564776,0.31848043,0.27800524,0.14265873,0.09566089,inf,inf,inf,inf,1,1,1,1,2,2,2,2,3,1,1,1,0,0,0
213197651,213196475,20718320,41.1790497,-8.603618899999999,-3.5381052,-0.25056323,-1.6030253,-0.00045489697,0.0003034392,-2.4914742e-05,-0.034040455,-0.17919101,-0.15034656,-0.14995123,0.015570171,0.0037364298,0.008197296,3.3656313,6.8344593,-0.201534,-2.0990217,-0.20852806,113.10937,3.768528,0.30946568,0.27293792,0.13761388,0.0939966,inf,inf,inf,inf,1,1,1,1,2,2,2,2,3,1,1,1,0,0,0
213297555,213296421,20718320,41.1790497,-8.603618899999999,-3.530992,-0.2742961,-1.61878,-0.00045489697,0.0003034392,-2.4914742e-05,0.12433903,0.07074739,-0.16532062,-0.16529146,0.015570171,0.0037364298,0.008197296,2.0260823,1.0178069,5.9740686,-2.1029682,-0.20852806,113.10937,3.7842827,0.31804866,0.27776664,0.14255892,0.09555709,inf,inf,inf,inf,1,1,1,1,2,2,2,2,3,1,1,1,0,0,0
213397498,213396368,20718320,41.1790497,-8.603618899999999,-3.5152304,-0.2753671,-1.6339248,-0.00045489697,0.0003034392,-2.4914742e-05,0.2827328,0.32448378,-0.108203724,-0.10895132,0.015570171,0.0037364298,0.008197296,1.4979131,3.3552227,5.072255,-2.108057,-0.20852806,113.10937,3.7994275,0.30906242,0.2727332,0.13828018,0.093892306,inf,inf,inf,inf,1,1,1,1,2,2,2,2,3,1,1,1,0,0,0
213497546,213496315,20718320,41.1790497,-8.603618899999999,-3.487516,-0.25283435,-1.6401138,-0.00045489697,0.0003034392,-2.4914742e-05,0.39685634,0.4861121,-0.0064925314,-0.007990576,0.015570171,0.0037364298,0.008197296,2.7051506,-0.26509798,3.1180813,-2.1190772,-0.20852806,113.10937,3.8056164,0.317647,0.2775593,0.14364894,0.09546829,inf,inf,inf,inf,1,1,1,1,2,2,2,2,3,1,1,1,0,0,0
213597466,213596261,20718320,41.1790497,-8.603618899999999,-3.4611347,-0.22177935,-1.6390388,-0.00045489697,0.0003034392,-2.4914742e-05,0.49513698,0.61494726,0.05898867,0.055172414,0.015570171,0.0037364298,0.008197296,3.0631528,0.4435745,-0.36157244,-2.1302495,-0.20852806,113.10937,3.8045413,0.3086907,0.27253553,0.13910568,0.09385135,inf,inf,inf,inf,1,1,1,1,2,2,2,2,3,1,1,1,0,0,0
213697335,213696207,20718320,41.1790497,-8.603618899999999,-3.4298148,-0.18088748,-1.6340165,-0.00045489697,0.0003034392,-2.4914742e-05,0.48434252,0.6590824,0.126259,0.12035546,0.015570171,0.0037364298,0.008197296,-1.5891602,0.15947473,3.000085,-2.1399317,-0.20852806,113.10937,3.799519,0.3172485,0.27736107,0.14430141,0.09547296,inf,inf,inf,inf,1,1,1,1,2,2,2,2,3,1,1,1,0,0,0
213797249,213796154,20718320,41.1790497,-8.603618899999999,-3.4074128,-0.13606936,-1.6235566,-0.00045489697,0.0003034392,-2.4914742e-05,0.48742127,0.6192753,0.17687272,0.1685003,0.015570171,0.0037364298,0.008197296,2.7631526,-1.0378381,2.432905,-2.1491387,-0.20852806,113.10937,3.7890592,0.3083065,0.27233446,0.139102,0.09386541,inf,inf,inf,inf,1,1,1,1,2,2,2,2,3,1,1,1,0,0,0
213897287,213896100,20718320,41.1790497,-8.603618899999999,-3.386676,-0.09107884,-1.6095377,-0.00045489697,0.0003034392,-2.4914742e-05,0.4298127,0.55196047,0.16377749,0.1536299,0.015570171,0.0037364298,0.008197296,-0.2870864,-1.742955,0.4374673,-2.1507654,-0.20852806,113.10937,3.7750401,0.31685948,0.27716485,0.14316908,0.09548726,inf,inf,inf,inf,1,1,1,1,2,2,2,2,3,1,1,1,0,0,0
213997221,213996046,20718320,41.1790497,-8.603618899999999,-3.3764741,-0.051444106,-1.5955582,-0.00045489697,0.0003034392,-2.4914742e-05,0.35171047,0.44267994,0.17050458,0.15890032,0.015570171,0.0037364298,0.008197296,-0.5590439,1.5399176,0.12742174,-2.1517975,-0.20852806,113.10937,3.7610607,0.30791405,0.272126,0.1378278,0.093866274,inf,inf,inf,inf,1,1,1,1,2,2,2,2,3,1,1,1,0,0,0
214097157,214095992,20718320,41.1790497,-8.603618899999999,-3.3701644,-0.019111026,-1.5829915,-0.00045489697,0.0003034392,-2.4914742e-05,0.27112398,0.33120796,0.13700613,0.12460783,0.015570171,0.0037364298,0.008197296,-1.3073646,-2.4418578,-0.8652529,-2.148021,-0.20852806,113.10937,3.7484941,0.31647226,0.27696314,0.14179245,0.09546552,inf,inf,inf,inf,1,1,1,1,2,2,2,2,3,1,1,1,0,0,0
214197003,214195938,20718320,41.1790497,-8.603618899999999,-3.3701305,0.011867328,-1.5675489,-0.00045489697,0.0003034392,-2.4914742e-05,0.20747143,0.23039,0.18896687,0.1774126,0.015570171,0.0037364298,0.008197296,2.6742766,-1.7709938,1.0511715,-2.142086,-0.20852806,113.10937,3.7330513,0.30754697,0.27193362,0.13667695,0.09384035,inf,inf,inf,inf,1,1,1,1,2,2,2,2,3,1,1,1,0,0,0
214297005,214295885,20718320,41.1790497,-8.603618899999999,-3.373411,0.03556704,-1.5494814,-0.00045489697,0.0003034392,-2.4914742e-05,0.10352271,0.1413309,0.20412174,0.19381915,0.015570171,0.0037364298,0.008197296,-2.8652496,-0.9465092,1.2438973,-2.13905,-0.20852806,113.10937,3.714984,0.316102,0.27677587,0.1406963,0.09545861,inf,inf,inf,inf,1,1,1,1,2,2,2,2,3,1,1,1,0,0,0
214396927,214395831,20718320,41.1790497,-8.603618899999999,-3.3801823,0.055364024,-1.5334044,-0.00045489697,0.0003034392,-2.4914742e-05,0.031148445,0.017700862,0.14290597,0.1331642,0.015570171,0.0037364298,0.008197296,2.0382807,-0.45037445,-0.7384917,-2.138909,-0.20852806,113.10937,3.698907,0.30720916,0.27174366,0.13581797,0.093847126,inf,inf,inf,inf,1,1,1,1,2,2,2,2,3,1,1,1,0,0,0
214496845,214495778,20718320,41.1790497,-8.603618899999999,-3.3923178,0.063092165,-1.5233585,-0.00045489697,0.0003034392,-2.4914742e-05,-0.062268503,-0.11646725,0.0747326,0.06547064,0.015570171,0.0037364298,0.008197296,2.1466193,-2.3502352,-0.17220427,-2.1379237,-0.20852806,113.10937,3.688861,0.31575444,0.27659145,0.14049357,0.0954688,inf,inf,inf,inf,1,1,1,1,2,2,2,2,3,1,1,1,0,0,0
214596832,214595726,20718320,41.1790497,-8.603618899999999,-3.4119854,0.058958292,-1.5159135,-0.00045489697,0.0003034392,-2.4914742e-05,-0.14606014,-0.18973029,0.03995286,0.034178898,0.015570171,0.0037364298,0.008197296,1.2378354,1.3398678,-2.1546843,-2.1356697,-0.20852806,113.10937,3.681416,0.3068477,0.27155587,0.13617298,0.093859665,inf,inf,inf,inf,1,1,1,1,2,2,2,2,3,1,1,1,0,0,0
214696863,214695670,20718320,41.1790497,-8.603618899999999,-3.4351027,0.045625463,-1.5111088,-0.00045489697,0.0003034392,-2.4914742e-05,-0.18161267,-0.23484284,0.0007587441,-0.0016157985,0.015570171,0.0037364298,0.008197296,0.83419466,1.5691056,-1.8284473,-2.1277568,-0.20852806,113.10937,3.6766114,0.3154057,0.27640787,0.14094706,0.09546992,inf,inf,inf,inf,1,1,1,1,2,2,2,2,3,1,1,1,0,0,0
214796619,214795616,20718320,41.1790497,-8.603618899999999,-3.4518144,0.03346048,-1.5074602,-0.00045489697,0.0003034392,-2.4914742e-05,-0.16519848,-0.23623744,0.009999161,0.011235587,0.015570171,0.0037364298,0.008197296,1.8661197,0.63064104,2.9731634,-2.1193182,-0.20852806,113.10937,3.6729627,0.30651182,0.272181,0.13650827,0.09399072,inf,inf,inf,inf,1,1,1,1,2,2,2,2,3,1,1,1,0,0,0
214896684,214895562,20718320,41.1790497,-8.603618899999999,-3.4619112,0.022408647,-1.5052493,-0.00045489697,0.0003034392,-2.4914742e-05,-0.12397919,-0.21399483,-0.026256746,-0.022201538,0.015570171,0.0037364298,0.008197296,-2.142038,-1.3250397,1.263053,-2.1128616,-0.20852806,113.10937,3.6707518,0.31507698,0.27707413,0.14106771,0.09562034,inf,inf,inf,inf,1,1,1,1,2,2,2,2,3,1,1,1,0,0,0
214996657,214995509,20718320,41.1790497,-8.603618899999999,-3.4666898,0.01299992,-1.5047191,-0.00045489697,0.0003034392,-2.4914742e-05,-0.04899144,-0.1336334,-0.013831572,-0.008197094,0.015570171,0.0037364298,0.008197296,1.2111216,3.0291135,0.6253962,-2.1102219,-0.20852806,113.10937,3.6702218,0.30619785,0.2719896,0.13653436,0.093991295,inf,inf,inf,inf,1,1,1,1,2,2,2,2,3,1,1,1,0,0,0
215096550,215095455,20718320,41.1790497,-8.603618899999999,-3.4652576,0.0064178924,-1.5058024,-0.00045489697,0.0003034392,-2.4914742e-05,0.018010966,-0.11224304,-0.025794107,-0.019961452,0.015570171,0.0037364298,0.008197296,1.9002038,-1.4175665,-1.9866585,-2.1070983,-0.20852806,113.10937,3.671305,0.31477204,0.27688673,0.14095834,0.09560347,inf,inf,inf,inf,1,1,1,1,2,2,2,2,3,1,1,1,0,0,0
215196467,215195401,20718320,41.1790497,-8.603618899999999,-3.4625392,-0.0016594406,-1.5077194,-0.00045489697,0.0003034392,-2.4914742e-05,0.054910406,-0.050309975,-0.030397605,-0.023565706,0.015570171,0.0037364298,0.008197296,-0.13043188,2.7078238,-1.8305161,-2.107079,-0.20852806,113.10937,3.673222,0.30589733,0.27181026,0.136363,0.09398336,inf,inf,inf,inf,1,1,1,1,2,2,2,2,3,1,1,1,0,0,0
215296401,215295347,20718320,41.1790497,-8.603618899999999,-3.457613,-0.007988433,-1.5103247,-0.00045489697,0.0003034392,-2.4914742e-05,0.06764984,-0.048200693,-0.041358832,-0.03400041,0.015570171,0.0037364298,0.008197296,0.93558705,-0.4702304,1.2182556,-2.1061993,-0.20852806,113.10937,3.6758273,0.3144831,0.27671134,0.14092651,0.09560376,inf,inf,inf,inf,1,1,1,1,2,2,2,2,3,1,1,1,0,0,0
215396332,215395293,20718320,41.1790497,-8.603618899999999,-3.4524891,-0.01592538,-1.510774,-0.00045489697,0.0003034392,-2.4914742e-05,0.09101509,-0.019974599,0.0044362345,0.01170946,0.015570171,0.0037364298,0.008197296,0.90277267,-1.7415138,-0.22276592,-2.1079907,-0.20852806,113.10937,3.6762767,0.30556768,0.27164146,0.13631937,0.09398443,inf,inf,inf,inf,1,1,1,1,2,2,2,2,3,1,1,1,0,0,0
215496338,215495242,20718320,41.1790497,-8.603618899999999,-3.4462452,-0.023055278,-1.5099685,-0.00045489697,0.0003034392,-2.4914742e-05,0.07473767,-0.0109826885,0.024778206,0.03169764,0.015570171,0.0037364298,0.008197296,-1.8670294,-1.6540475,1.3752905,-2.1098166,-0.20852806,113.10937,3.675471,0.3141533,0.2765464,0.14071125,0.095615,inf,inf,inf,inf,1,1,1,1,2,2,2,2,3,1,1,1,0,0,0
215596251,215595186,20718320,41.1790497,-8.603618899999999,-3.4430752,-0.032940865,-1.507882,-0.00045489697,0.0003034392,-2.4914742e-05,0.055240113,-0.009986604,0.03373331,0.040503643,0.015570171,0.0037364298,0.008197296,-2.2272503,1.4117155,1.2125863,-2.113306,-0.20852806,113.10937,3.6733847,0.3052002,0.27148226,0.13598005,0.09398821,inf,inf,inf,inf,1,1,1,1,2,2,2,2,3,1,1,1,0,0,0
215696203,215695132,20718320,41.1790497,-8.603618899999999,-3.4400215,-0.04274456,-1.5056556,-0.00045489697,0.0003034392,-2.4914742e-05,0.06217409,-0.018785197,-0.018605908,-0.0114559345,0.015570171,0.0037364298,0.008197296,-1.8938787,2.359404,-2.3490827,-2.1148,-0.20852806,113.10937,3.6711583,0.31378096,0.2763912,0.1404875,0.09561987,inf,inf,inf,inf,1,1,1,1,2,2,2,2,3,1,1,1,0,0,0
215796147,215795078,20718320,41.1790497,-8.603618899999999,-3.436777,-0.050675277,-1.5053898,-0.00045489697,0.0003034392,-2.4914742e-05,0.07650075,-0.0140395835,0.008513897,0.014999146,0.015570171,0.0037364298,0.008197296,2.1850574,1.4154875,-1.5063494,-2.11431,-0.20852806,113.10937,3.6708922,0.30472142,0.27129385,0.13598461,0.093977705,inf,inf,inf,inf,1,1,1,1,2,2,2,2,3,1,1,1,0,0,0
215896070,215895024,20718320,41.1790497,-8.603618899999999,-3.431642,-0.056350127,-1.5049306,-0.00045489697,0.0003034392,-2.4914742e-05,0.07763153,-0.010320198,-0.0018945085,0.004395926,0.015570171,0.0037364298,0.008197296,1.4953879,-1.8291248,1.2560152,-2.115456,-0.20852806,113.10937,3.670433,0.31329638,0.27620527,0.14043972,0.09561624,inf,inf,inf,inf,1,1,1,1,2,2,2,2,3,1,1,1,0,0,0
215996050,215994970,20718320,41.1790497,-8.603618899999999,-3.4264758,-0.06081253,-1.5057329,-0.00045489697,0.0003034392,-2.4914742e-05,0.06401362,0.0018489256,-0.004463302,0.0012235879,0.015570171,0.0037364298,0.008197296,-2.52215,-1.902531,1.5923601,-2.114397,-0.20852806,113.10937,3.6712356,0.30421677,0.27111545,0.13576072,0.09397248,inf,inf,inf,inf,1,1,1,1,2,2,2,2,3,1,1,1,0,0,0
216095988,216094916,20718320,41.1790497,-8.603618899999999,-3.419319,-0.063388355,-1.5054146,-0.00045489697,0.0003034392,-2.4914742e-05,0.09306444,0.029766573,-0.0036109905,0.0015700435,0.015570171,0.0037364298,0.008197296,-0.9207416,2.14829,-2.3207157,-2.1141953,-0.20852806,113.10937,3.670917,0.31278366,0.2760293,0.1403063,0.09560561,inf,inf,inf,inf,1,1,1,1,2,2,2,2,3,1,1,1,0,0,0
216196052,216194862,20718320,41.1790497,-8.603618899999999,-3.4123476,-0.06498337,-1.5050756,-0.00045489697,0.0003034392,-2.4914742e-05,0.10630902,0.021960575,0.017521458,0.021873843,0.015570171,0.0037364298,0.008197296,3.8479733,-2.1368911,0.3283056,-2.1130414,-0.20852806,113.10937,3.670578,0.30369335,0.27093467,0.13561682,0.09396209,inf,inf,inf,inf,1,1,1,1,2,2,2,2,3,1,1,1,0,0,0
216295955,216294808,20718320,41.1790497,-8.603618899999999,-3.4040942,-0.06547369,-1.5062537,-0.00045489697,0.0003034392,-2.4914742e-05,0.08761583,0.02471859,-0.036119558,-0.03143414,0.015570171,0.0037364298,0.008197296,-4.502094,0.1666378,0.936808,-2.1130733,-0.20852806,113.10937,3.6717563,0.31225193,0.2758511,0.14009309,0.09560474,inf,inf,inf,inf,1,1,1,1,2,2,2,2,3,1,1,1,0,0,0
216395801,216394754,20718320,41.1790497,-8.603618899999999,-3.3972337,-0.067497015,-1.5076143,-0.00045489697,0.0003034392,-2.4914742e-05,0.108331926,0.031358898,-0.029131498,-0.023448199,0.015570171,0.0037364298,0.008197296,2.5487864,1.6928679,0.67532045,-2.1121302,-0.20852806,113.10937,3.6731167,0.30324885,0.2707902,0.13568139,0.093979776,inf,inf,inf,inf,1,1,1,1,2,2,2,2,3,1,1,1,0,0,0
216495916,216494700,20718320,41.1790497,-8.603618899999999,-3.3901038,-0.069305465,-1.5106318,-0.00045489697,0.0003034392,-2.4914742e-05,0.09711119,0.033593643,-0.03175609,-0.02531451,0.015570171,0.0037364298,0.008197296,2.140004,-0.91242236,2.4578648,-2.1118312,-0.20852806,113.10937,3.6761343,0.31181374,0.2757113,0.14021897,0.09562492,inf,inf,inf,inf,1,1,1,1,2,2,2,2,3,1,1,1,0,0,0
216595732,216594646,20718320,41.1790497,-8.603618899999999,-3.3844428,-0.069911234,-1.5150121,-0.00045489697,0.0003034392,-2.4914742e-05,0.089487456,0.03672747,-0.038020834,-0.032342512,0.015570171,0.0037364298,0.008197296,-2.0294638,0.53635883,-1.8171649,-2.10968,-0.20852806,113.10937,3.6805148,0.3027857,0.270642,0.135609,0.093999594,inf,inf,inf,inf,1,1,1,1,2,2,2,2,3,1,1,1,0,0,0
216695686,216694595,20718320,41.1790497,-8.603618899999999,-3.3792639,-0.06927468,-1.5186682,-0.00045489697,0.0003034392,-2.4914742e-05,0.07662106,0.03912143,-0.023885813,-0.018856004,0.015570171,0.0037364298,0.008197296,2.2391338,0.06730755,1.5220424,-2.110169,-0.20852806,113.10937,3.6841707,0.3113537,0.27556378,0.14018479,0.095640056,inf,inf,inf,inf,1,1,1,1,2,2,2,2,3,1,1,1,0,0,0
216795772,216794538,20718320,41.1790497,-8.603618899999999,-3.3753765,-0.070057414,-1.5223478,-0.00045489697,0.0003034392,-2.4914742e-05,0.07036001,0.039414328,-0.009243842,-0.0070421803,0.015570171,0.0037364298,0.008197296,-0.031733993,-1.1707065,0.8695366,-2.1099,-0.20852806,113.10937,3.6878505,0.3023317,0.27050218,0.1355249,0.094012715,inf,inf,inf,inf,1,1,1,1,2,2,2,2,3,1,1,1,0,0,0
216895570,216894484,20718320,41.1790497,-8.603618899999999,-3.3718836,-0.07137778,-1.5232137,-0.00045489697,0.0003034392,-2.4914742e-05,0.058794115,0.017250115,0.016396485,0.017346239,0.015570171,0.0037364298,0.008197296,-0.7654207,0.60451394,-2.365885,-2.109142,-0.20852806,113.10937,3.6887164,0.31089723,0.27542424,0.14001867,0.09565349,inf,inf,inf,inf,1,1,1,1,2,2,2,2,3,1,1,1,0,0,0
216995577,216994430,20718320,41.1790497,-8.603618899999999,-3.3693237,-0.0778076,-1.5250293,-0.00045489697,0.0003034392,-2.4914742e-05,0.06787209,-0.047021516,-0.0036205153,-0.0046574934,0.015570171,0.0037364298,0.008197296,3.897122,-2.275342,-0.2352137,-2.1091545,-0.20852806,113.10937,3.6905317,0.30192947,0.2703658,0.13535127,0.09402704,inf,inf,inf,inf,1,1,1,1,2,2,2,2,3,1,1,1,0,0,0
