timestamp,timestamp_sample,ref_timestamp,ref_lat,ref_lon,x,y,z,delta_xy[0],delta_xy[1],delta_z,vx,vy,vz,z_deriv,delta_vxy[0],delta_vxy[1],delta_vz,ax,ay,az,heading,delta_heading,ref_alt,dist_bottom,eph,epv,evh,evv,vxy_max,vz_max,hagl_min,hagl_max,xy_valid,z_valid,v_xy_valid,v_z_valid,xy_reset_counter,z_reset_counter,vxy_reset_counter,vz_reset_counter,heading_reset_counter,heading_good_for_control,xy_global,z_global,dist_bottom_valid,dist_bottom_sensor_bitfield,dead_reckoning
289462531,289461377,20746427,41.1790421,-8.6036193,-0.97571874,-0.19109033,1.6049064,0.00044288504,-0.00038057796,1.0818243e-05,0.009062756,0.0066988384,0.0053862585,-0.003942348,-0.005952366,-0.0004691705,0.0036611534,0.8559391,-0.1294773,0.14947452,0.03549881,0.010604001,115.71866,0.09867263,0.34409216,0.29875436,0.13921084,0.09557782,inf,inf,inf,inf,1,1,1,1,2,2,2,2,2,0,1,1,0,0,0
289473043,289471373,20746427,41.1790421,-8.6036193,-0.9755228,-0.19097252,1.6049267,0.00044288504,-0.00038057796,1.0818243e-05,0.005345231,0.011399276,0.0070839296,-0.0021861347,-0.005952366,-0.0004691705,0.0036611534,-0.5128311,0.8060051,0.31726596,0.035469282,0.010604001,115.71866,0.10082388,0.34491843,0.2983279,0.13965881,0.0955981,inf,inf,inf,inf,1,1,1,1,2,2,2,2,2,0,1,1,0,0,0
289563126,289561333,20746427,41.1790421,-8.6036193,-0.9737129,-0.18982582,1.6049799,0.00044288504,-0.00038057796,1.0818243e-05,0.007139799,0.009181091,0.0070789517,-0.0018480184,-0.005952366,-0.0004691705,0.0036611534,0.28409535,0.2011343,0.14847705,0.035671525,0.010604001,115.71866,0.09797919,0.3360903,0.29438114,0.13480508,0.09407101,inf,inf,inf,inf,1,1,1,1,2,2,2,2,2,0,1,1,0,0,0
289672387,289671284,20746427,41.1790421,-8.6036193,-0.9693723,-0.18721779,1.605287,0.00044288504,-0.00038057796,1.0818243e-05,0.009297766,0.011117457,0.009101103,0.00073890074,-0.005952366,-0.0004691705,0.0036611534,0.86333936,0.58129483,0.9751665,0.035889115,0.010604001,115.71866,0.102236986,0.34491703,0.29829937,0.13967228,0.095598914,inf,inf,inf,inf,1,1,1,1,2,2,2,2,2,0,1,1,0,0,0
289762962,289761244,20746427,41.1790421,-8.6036193,-0.9664239,-0.18544184,1.6062098,0.00044288504,-0.00038057796,1.0818243e-05,0.010813591,0.009611399,0.007785949,0.00040330822,-0.005952366,-0.0004691705,0.0036611534,0.35010442,0.14786896,0.3032611,0.036120474,0.010604001,115.71866,0.10007322,0.3360881,0.29435474,0.13481723,0.0940722,inf,inf,inf,inf,1,1,1,1,2,2,2,2,2,0,1,1,0,0,0
289872268,289871195,20746427,41.1790421,-8.6036193,-0.96252376,-0.18374842,1.607019,0.00044288504,-0.00038057796,1.0818243e-05,0.008647607,0.007279105,0.009650153,0.0029267245,-0.005952366,-0.0004691705,0.0036611534,-0.08372755,-0.34852603,0.2662627,0.03631674,0.010604001,115.71866,0.10133052,0.34491658,0.29827368,0.13969082,0.0956001,inf,inf,inf,inf,1,1,1,1,2,2,2,2,2,0,1,1,0,0,0
289962893,289961155,20746427,41.1790421,-8.6036193,-0.9599709,-0.18242764,1.6082714,0.00044288504,-0.00038057796,1.0818243e-05,0.006535961,0.008027616,0.008495838,0.002780645,-0.005952366,-0.0004691705,0.0036611534,-0.6652476,-0.31841615,0.058043297,0.036463205,0.010604001,115.71866,0.101053834,0.33606833,0.29433098,0.13482575,0.09407382,inf,inf,inf,inf,1,1,1,1,2,2,2,2,2,0,1,1,0,0,0
290062296,290061111,20746427,41.1790421,-8.6036193,-0.9574357,-0.179895,1.6092404,0.00044288504,-0.00038057796,1.0818243e-05,0.0064262445,0.010670517,0.011892023,0.006690028,-0.005952366,-0.0004691705,0.0036611534,-0.9456915,-0.11121523,0.21280353,0.0366053,0.010604001,115.71866,0.099957585,0.3440712,0.29867637,0.13925481,0.09558163,inf,inf,inf,inf,1,1,1,1,2,2,2,2,2,0,1,1,0,0,0
290162731,290161067,20746427,41.1790421,-8.6036193,-0.95548743,-0.17792717,1.6102802,0.00044288504,-0.00038057796,1.0818243e-05,0.007002518,0.0099900095,0.010327955,0.0056634927,-0.005952366,-0.0004691705,0.0036611534,-0.01637578,-0.12639815,0.10832992,0.036777563,0.010604001,115.71866,0.10020602,0.33605114,0.29430264,0.13482977,0.09407446,inf,inf,inf,inf,1,1,1,1,2,2,2,2,2,0,1,1,0,0,0
290262048,290261022,20746427,41.1790421,-8.6036193,-0.95394737,-0.17646793,1.611191,0.00044288504,-0.00038057796,1.0818243e-05,0.0074161096,0.0104128895,0.010364189,0.006064742,-0.005952366,-0.0004691705,0.0036611534,-0.07313307,0.17638932,0.04718001,0.037133474,0.010604001,115.71866,0.10058737,0.34405515,0.29864854,0.13926311,0.095582664,inf,inf,inf,inf,1,1,1,1,2,2,2,2,2,0,1,1,0,0,0
290371965,290370973,20746427,41.1790421,-8.6036193,-0.95210224,-0.17493945,1.6131687,0.00044288504,-0.00038057796,1.0818243e-05,0.00814634,0.007720333,0.0106416205,0.007603055,-0.005952366,-0.0004691705,0.0036611534,-0.023858478,-0.59470785,-0.3534054,0.03743155,0.010604001,115.71866,0.1028254,0.33681473,0.29490495,0.13528469,0.09425428,inf,inf,inf,inf,1,1,1,1,2,2,2,2,2,0,1,1,0,0,0
290461855,290460933,20746427,41.1790421,-8.6036193,-0.94906425,-0.17322715,1.6153606,0.00044288504,-0.00038057796,1.0818243e-05,0.0044909855,0.007285523,0.00579062,0.0041761887,-0.005952366,-0.0004691705,0.0036611534,-0.9156287,-0.44574824,-1.4918919,0.037686132,0.010604001,115.71866,0.10405934,0.34404084,0.29860547,0.13927838,0.09557807,inf,inf,inf,inf,1,1,1,1,2,2,2,2,2,0,1,1,0,0,0
290571869,290570884,20746427,41.1790421,-8.6036193,-0.94616306,-0.17160974,1.6186466,0.00044288504,-0.00038057796,1.0818243e-05,0.009981474,0.010809783,0.01202666,0.012423104,-0.005952366,-0.0004691705,0.0036611534,0.7616709,0.67001134,-1.2597426,0.03817921,0.010604001,115.71866,0.103358984,0.33680046,0.29486546,0.13531694,0.09425096,inf,inf,inf,inf,1,1,1,1,2,2,2,2,2,0,1,1,0,0,0
290661869,290660844,20746427,41.1790421,-8.6036193,-0.94455075,-0.17083403,1.6206051,0.00044288504,-0.00038057796,1.0818243e-05,0.009267431,0.0040244656,0.0048996517,0.0060386127,-0.005952366,-0.0004691705,0.0036611534,-0.85974044,-0.6227554,-1.7268476,0.0386617,0.010604001,115.71866,0.10080218,0.34402746,0.29856625,0.13931872,0.095575355,inf,inf,inf,inf,1,1,1,1,2,2,2,2,2,0,1,1,0,0,0
290771916,290770796,20746427,41.1790421,-8.6036193,-0.9428493,-0.16996613,1.6224288,0.00044288504,-0.00038057796,1.0818243e-05,0.013114037,0.007630128,0.013449445,0.014734406,-0.005952366,-0.0004691705,0.0036611534,1.455689,-0.6806611,-0.7437658,0.03913176,0.010604001,115.71866,0.097831726,0.33678773,0.2948294,0.13528629,0.09424895,inf,inf,inf,inf,1,1,1,1,2,2,2,2,2,0,1,1,0,0,0
290861753,290860756,20746427,41.1790421,-8.6036193,-0.94108003,-0.16887957,1.6233977,0.00044288504,-0.00038057796,1.0818243e-05,0.004961106,0.0050350763,0.010762814,0.0117069725,-0.005952366,-0.0004691705,0.0036611534,0.13451606,-0.35860646,-0.2393355,0.03966049,0.010604001,115.71866,0.1003685,0.34401545,0.29853052,0.13929325,0.09557363,inf,inf,inf,inf,1,1,1,1,2,2,2,2,2,0,1,1,0,0,0
290961873,290960711,20746427,41.1790421,-8.6036193,-0.9397419,-0.16818528,1.6247908,0.00044288504,-0.00038057796,1.0818243e-05,-0.0022141302,0.00048012089,0.015060717,0.01602402,-0.005952366,-0.0004691705,0.0036611534,-0.8434281,0.39686292,1.375766,0.040863816,0.010604001,115.71866,0.10003102,0.35250854,0.30294767,0.14379537,0.09706468,inf,inf,inf,inf,1,1,1,1,2,2,2,2,2,0,1,1,0,0,0
291071794,291070663,20746427,41.1790421,-8.6036193,-0.93927443,-0.16736388,1.6243737,0.00044288504,-0.00038057796,1.0818243e-05,0.00074277795,0.003027187,0.010739956,0.009952527,-0.005952366,-0.0004691705,0.0036611534,0.15066609,1.4802593,-0.79313743,0.04224642,0.010604001,115.71866,0.10044813,0.3447678,0.29911488,0.13965923,0.09573637,inf,inf,inf,inf,1,1,1,1,2,2,2,2,2,0,1,1,0,0,0
291162447,291160623,20746427,41.1790421,-8.6036193,-0.9391531,-0.1669117,1.6238074,0.00044288504,-0.00038057796,1.0818243e-05,-0.008444534,-0.00849125,0.0037028822,0.0016628484,-0.005952366,-0.0004691705,0.0036611534,-1.367788,-1.7197434,-2.5220888,0.043417007,0.010604001,115.71866,0.101014376,0.335916,0.29408985,0.13481286,0.09404821,inf,inf,inf,inf,1,1,1,1,2,2,2,2,2,0,1,1,0,0,0
291271767,291270574,20746427,41.1790421,-8.6036193,-0.9396969,-0.16570674,1.6221288,0.00044288504,-0.00038057796,1.0818243e-05,-0.009914161,-0.007722287,-0.0021880658,-0.0061622667,-0.005952366,-0.0004691705,0.0036611534,-0.8999715,-1.832818,-1.9874567,0.04926302,0.010604001,115.71866,0.10269296,0.34474596,0.29908043,0.13970783,0.095737845,inf,inf,inf,inf,1,1,1,1,2,2,2,2,2,0,1,1,0,0,0
291362381,291360534,20746427,41.1790421,-8.6036193,-0.9405144,-0.16589548,1.6204929,0.00044288504,-0.00038057796,1.0818243e-05,-0.01800063,-0.009416138,-0.005044918,-0.010235257,-0.005952366,-0.0004691705,0.0036611534,-0.06096269,-0.402852,-1.0271473,0.06068818,0.010604001,115.71866,0.10432887,0.33589348,0.29405838,0.13487472,0.09405235,inf,inf,inf,inf,1,1,1,1,2,2,2,2,2,0,1,1,0,0,0
291471555,291470485,20746427,41.1790421,-8.6036193,-0.94170076,-0.16698469,1.6167145,0.00044288504,-0.00038057796,1.0818243e-05,-0.04377494,-0.015769117,-0.019700581,-0.026603421,-0.005952366,-0.0004691705,0.0036611534,-2.4426126,0.5485685,1.5633823,0.07944892,0.010604001,115.71866,0.10810733,0.3447254,0.29904968,0.13973261,0.095749244,inf,inf,inf,inf,1,1,1,1,2,2,2,2,2,0,1,1,0,0,0
291561845,291560445,20746427,41.1790421,-8.6036193,-0.9445205,-0.16975088,1.6128386,0.00044288504,-0.00038057796,1.0818243e-05,-0.042993885,-0.04371916,-0.03783043,-0.045570627,-0.005952366,-0.0004691705,0.0036611534,0.72822,-1.0921373,-0.6689506,0.10031715,0.010604001,115.71866,0.11198318,0.3523908,0.3028138,0.14384693,0.09705918,inf,inf,inf,inf,1,1,1,1,2,2,2,2,2,0,1,1,0,0,0
291661436,291660401,20746427,41.1790421,-8.6036193,-0.94731045,-0.17470595,1.606685,0.00044288504,-0.00038057796,1.0818243e-05,-0.06041054,-0.05687905,-0.047290996,-0.056017075,-0.005952366,-0.0004691705,0.0036611534,-0.48106664,-1.2845887,1.17597,0.120647036,0.010604001,115.71866,0.11813676,0.3438171,0.2983389,0.13937174,0.09556226,inf,inf,inf,inf,1,1,1,1,2,2,2,2,2,0,1,1,0,0,0
291771384,291770352,20746427,41.1790421,-8.6036193,-0.9535511,-0.18294875,1.6011605,0.00044288504,-0.00038057796,1.0818243e-05,-0.1064955,-0.095982805,-0.020309923,-0.029628238,-0.005952366,-0.0004691705,0.0036611534,-1.8954298,0.6378687,0.23731829,0.1396893,0.010604001,115.71866,0.12366128,0.33658135,0.29460657,0.13542667,0.094266854,inf,inf,inf,inf,1,1,1,1,2,2,2,2,2,0,1,1,0,0,0
291861503,291860313,20746427,41.1790421,-8.6036193,-0.96337306,-0.19471225,1.5998018,0.00044288504,-0.00038057796,1.0818243e-05,-0.16311726,-0.16096148,-0.00086748024,-0.010508475,-0.005952366,-0.0004691705,0.0036611534,0.9197305,0.09743324,-0.54975575,0.15800743,0.010604001,115.71866,0.12502003,0.34380683,0.298309,0.13939191,0.095623,inf,inf,inf,inf,1,1,1,1,2,2,2,2,2,0,1,1,0,0,0
291971309,291970262,20746427,41.1790421,-8.6036193,-0.98387396,-0.21639222,1.5916907,0.00044288504,-0.00038057796,1.0818243e-05,-0.25252184,-0.24284686,-0.13938309,-0.14955534,-0.005952366,-0.0004691705,0.0036611534,-0.6321051,-3.702375,-3.2946074,0.18993974,0.010604001,115.71866,0.13313115,0.33657444,0.29457942,0.13547008,0.09431454,inf,inf,inf,inf,1,1,1,1,2,2,2,2,2,0,1,1,0,0,0
292061283,292060222,20746427,41.1790421,-8.6036193,-1.0062807,-0.23712528,1.570425,0.00044288504,-0.00038057796,1.0818243e-05,-0.2894301,-0.2652182,-0.28227314,-0.2934984,-0.005952366,-0.0004691705,0.0036611534,0.81647563,2.498977,-0.4000412,0.22473946,0.010604001,115.71866,0.15439677,0.3438035,0.2982825,0.14003523,0.09564669,inf,inf,inf,inf,1,1,1,1,2,2,2,2,2,0,1,1,0,0,0
292171258,292170174,20746427,41.1790421,-8.6036193,-1.0373397,-0.26610297,1.5267015,0.00044288504,-0.00038057796,1.0818243e-05,-0.31200403,-0.3142077,-0.5046278,-0.5152863,-0.005952366,-0.0004691705,0.0036611534,2.562333,-3.6217089,-3.5300503,0.27174038,0.010604001,115.71866,0.19812036,0.33654764,0.2945549,0.13687931,0.09433054,inf,inf,inf,inf,1,1,1,1,2,2,2,2,2,0,1,1,0,0,0
292261201,292260134,20746427,41.1790421,-8.6036193,-1.0598717,-0.28933388,1.4765084,0.00044288504,-0.00038057796,1.0818243e-05,-0.30150047,-0.32204217,-0.6748219,-0.68164486,-0.005952366,-0.0004691705,0.0036611534,2.365681,-1.7066844,-1.3645641,0.31049612,0.010604001,115.71866,0.24831343,0.34381112,0.29824975,0.14199924,0.09566187,inf,inf,inf,inf,1,1,1,1,2,2,2,2,2,0,1,1,0,0,0
292371785,292370085,20746427,41.1790421,-8.6036193,-1.085967,-0.31945845,1.39548,0.00044288504,-0.00038057796,1.0818243e-05,-0.27259964,-0.31243065,-0.8433005,-0.84623253,-0.005952366,-0.0004691705,0.0036611534,-2.041327,1.1989276,-1.8362455,0.35656586,0.010604001,115.71866,0.32934177,0.336471,0.29448044,0.13900866,0.09432295,inf,inf,inf,inf,1,1,1,1,2,2,2,2,2,0,1,1,0,0,0
292471048,292470041,20746427,41.1790421,-8.6036193,-1.1020033,-0.34489664,1.3155819,0.00044288504,-0.00038057796,1.0818243e-05,-0.22280137,-0.28472543,-0.97648823,-0.96888006,-0.005952366,-0.0004691705,0.0036611534,-1.349499,1.6246144,-3.7826314,0.39667392,0.010604001,115.71866,0.4092399,0.3446023,0.29882872,0.14498322,0.09584652,inf,inf,inf,inf,1,1,1,1,2,2,2,2,2,0,1,1,0,0,0
292561007,292560001,20746427,41.1790421,-8.6036193,-1.1134814,-0.36665848,1.2287433,0.00044288504,-0.00038057796,1.0818243e-05,-0.15885755,-0.24997972,-1.1092135,-1.095584,-0.005952366,-0.0004691705,0.0036611534,-0.20586142,3.0480344,-0.58576065,0.4324527,0.010604001,115.71866,0.4960785,0.35238627,0.30258662,0.1505808,0.09717602,inf,inf,inf,inf,1,1,1,1,2,2,2,2,2,0,1,1,0,0,0
292670969,292669952,20746427,41.1790421,-8.6036193,-1.1234373,-0.3923968,1.1138324,0.00044288504,-0.00038057796,1.0818243e-05,-0.090053804,-0.22271897,-1.244624,-1.2173458,-0.005952366,-0.0004691705,0.0036611534,-0.49013278,0.4637251,1.4550835,0.4742177,0.010604001,115.71866,0.61098945,0.34458005,0.29876807,0.14778717,0.095882684,inf,inf,inf,inf,1,1,1,1,2,2,2,2,2,0,1,1,0,0,0
292761008,292759911,20746427,41.1790421,-8.6036193,-1.1281278,-0.41011816,1.0064664,0.00044288504,-0.00038057796,1.0818243e-05,-0.06416147,-0.17733599,-1.3290086,-1.2957659,-0.005952366,-0.0004691705,0.0036611534,-2.049698,2.8696384,-0.8131175,0.50440705,0.010604001,115.71866,0.7183554,0.35241088,0.30252692,0.15417376,0.097228356,inf,inf,inf,inf,1,1,1,1,2,2,2,2,2,0,1,1,0,0,0
292870973,292869863,20746427,41.1790421,-8.6036193,-1.1366265,-0.43026012,0.8733001,0.00044288504,-0.00038057796,1.0818243e-05,-0.013783388,-0.13009341,-1.352175,-1.3079389,-0.005952366,-0.0004691705,0.0036611534,-1.5399821,3.3146124,1.9797482,0.53902096,0.010604001,115.71866,0.85152173,0.34457582,0.29871354,0.1511585,0.09593937,inf,inf,inf,inf,1,1,1,1,2,2,2,2,2,0,1,1,0,0,0
292961546,292959823,20746427,41.1790421,-8.6036193,-1.139845,-0.4429156,0.7628224,0.00044288504,-0.00038057796,1.0818243e-05,0.022766823,-0.107649125,-1.2991774,-1.2507554,-0.005952366,-0.0004691705,0.0036611534,3.0830843,-1.3604769,0.7111174,0.5630088,0.010604001,115.71866,0.9619994,0.33564883,0.29370633,0.14645098,0.094282314,inf,inf,inf,inf,1,1,1,1,2,2,2,2,2,0,1,1,0,0,0
293071122,293069774,20746427,41.1790421,-8.6036193,-1.1434411,-0.45471433,0.6427195,0.00044288504,-0.00038057796,1.0818243e-05,0.02435334,-0.06717548,-1.0037068,-0.9520146,-0.005952366,-0.0004691705,0.0036611534,-2.2015839,3.3764029,3.3790612,0.58742774,0.010604001,115.71866,1.0821023,0.34464753,0.29869512,0.15386018,0.096020855,inf,inf,inf,inf,1,1,1,1,2,2,2,2,2,0,1,1,0,0,0
293161213,293159734,20746427,41.1790421,-8.6036193,-1.144102,-0.46197066,0.5738506,0.00044288504,-0.00038057796,1.0818243e-05,0.036075074,-0.059899643,-0.6454391,-0.593688,-0.005952366,-0.0004691705,0.0036611534,1.1346672,-2.107909,4.9381695,0.60355043,0.010604001,115.71866,1.1509712,0.3525396,0.30245855,0.15912879,0.09737193,inf,inf,inf,inf,1,1,1,1,2,2,2,2,2,0,1,1,0,0,0
293270860,293269685,20746427,41.1790421,-8.6036193,-1.1463048,-0.46652117,0.5151996,0.00044288504,-0.00038057796,1.0818243e-05,0.061866518,-0.025306435,-0.36004254,-0.31904215,-0.005952366,-0.0004691705,0.0036611534,-0.11584224,2.742311,1.7223339,0.62306666,0.010604001,115.71866,1.2096221,0.34464303,0.29865095,0.15393442,0.09606256,inf,inf,inf,inf,1,1,1,1,2,2,2,2,2,0,1,1,0,0,0
293371441,293369640,20746427,41.1790421,-8.6036193,-1.1443329,-0.46850556,0.48044428,0.00044288504,-0.00038057796,1.0818243e-05,0.085714936,-0.0012626649,-0.23289634,-0.20245951,-0.005952366,-0.0004691705,0.0036611534,1.8754822,1.6622902,0.09509587,0.6434957,0.010604001,115.71866,1.2443775,0.33646834,0.2942561,0.1490604,0.09455362,inf,inf,inf,inf,1,1,1,1,2,2,2,2,2,0,1,1,0,0,0
293460767,293459600,20746427,41.1790421,-8.6036193,-1.1361715,-0.46987796,0.4408075,0.00044288504,-0.00038057796,1.0818243e-05,0.10116568,0.010990015,-0.22691195,-0.21840824,-0.005952366,-0.0004691705,0.0036611534,-0.7420565,3.3208513,0.5860827,0.66084224,0.010604001,115.71866,1.2840143,0.34377202,0.29795834,0.1557646,0.09593144,inf,inf,inf,inf,1,1,1,1,2,2,2,2,2,0,1,1,0,0,0
293570771,293569552,20746427,41.1790421,-8.6036193,-1.1247461,-0.4696474,0.3875064,0.00044288504,-0.00038057796,1.0818243e-05,0.103192806,0.032830637,-0.34781018,-0.362456,-0.005952366,-0.0004691705,0.0036611534,-3.235649,0.8705068,-4.3146462,0.6854349,0.010604001,115.71866,1.3373154,0.3364668,0.29424867,0.15273297,0.09463196,inf,inf,inf,inf,1,1,1,1,2,2,2,2,2,0,1,1,0,0,0
293660611,293659512,20746427,41.1790421,-8.6036193,-1.1169426,-0.46862257,0.3271675,0.00044288504,-0.00038057796,1.0818243e-05,0.11711147,0.04160721,-0.49214733,-0.5274881,-0.005952366,-0.0004691705,0.0036611534,-1.8452282,-0.14423634,-2.0052469,0.7092467,0.010604001,115.71866,1.3976543,0.3438245,0.29795408,0.16073972,0.09599357,inf,inf,inf,inf,1,1,1,1,2,2,2,2,2,0,1,1,0,0,0
293770441,293769463,20746427,41.1790421,-8.6036193,-1.107363,-0.46541122,0.23388913,0.00044288504,-0.00038057796,1.0818243e-05,0.11959838,0.065598376,-0.7810617,-0.8347908,-0.005952366,-0.0004691705,0.0036611534,1.3557564,0.33765534,-3.0297613,0.7376798,0.010604001,115.71866,1.4909327,0.3364334,0.29423752,0.15803725,0.0946837,inf,inf,inf,inf,1,1,1,1,2,2,2,2,2,0,1,1,0,0,0
293870580,293869418,20746427,41.1790421,-8.6036193,-1.1003747,-0.4603878,0.12563547,0.00044288504,-0.00038057796,1.0818243e-05,0.12291646,0.07330712,-0.97084755,-1.0365171,-0.005952366,-0.0004691705,0.0036611534,-1.9983592,-0.46598893,0.58191085,0.7609275,0.010604001,115.71866,1.5991863,0.3447629,0.2986004,0.16830768,0.09625165,inf,inf,inf,inf,1,1,1,1,2,2,2,2,2,0,1,1,0,0,0
293971201,293969374,20746427,41.1790421,-8.6036193,-1.091797,-0.45326108,0.0063527804,0.00044288504,-0.00038057796,1.0818243e-05,0.13491978,0.0920862,-1.0526628,-1.1259319,-0.005952366,-0.0004691705,0.0036611534,-0.25771642,2.3077548,3.439117,0.5645302,-0.21791902,115.71866,1.718469,0.33640128,0.294208,0.1624932,0.09471066,inf,inf,inf,inf,1,1,1,1,2,2,2,2,3,0,1,1,0,0,0
294070390,294069330,20746427,41.1790421,-8.6036193,-1.0755655,-0.44448704,-0.10488805,0.00044288504,-0.00038057796,1.0818243e-05,0.14858906,0.09819796,-1.0297942,-1.1008439,-0.005952366,-0.0004691705,0.0036611534,1.9196185,-3.0266943,-0.77564764,0.5848938,-0.21791902,115.71866,1.8297099,0.344748,0.29856783,0.1673139,0.096256115,inf,inf,inf,inf,1,1,1,1,2,2,2,2,3,0,1,1,0,0,0
294171014,294169285,20746427,41.1790421,-8.6036193,-1.059437,-0.43316326,-0.20998988,0.00044288504,-0.00038057796,1.0818243e-05,0.13375393,0.12145337,-0.9676997,-1.0365311,-0.005952366,-0.0004691705,0.0036611534,-3.1522357,0.42435896,0.41483605,0.6039416,-0.21791902,115.71866,1.9348117,0.3365771,0.29420483,0.16095354,0.094735794,inf,inf,inf,inf,1,1,1,1,2,2,2,2,3,0,1,1,0,0,0
294270331,294269240,20746427,41.1790421,-8.6036193,-1.0455681,-0.41938177,-0.3112242,0.00044288504,-0.00038057796,1.0818243e-05,0.14621633,0.1322667,-0.93408686,-1.0004066,-0.005952366,-0.0004691705,0.0036611534,-1.3291276,2.8798401,2.302175,0.61975574,-0.21791902,115.71866,2.036046,0.34476572,0.2985624,0.17095621,0.096287675,inf,inf,inf,inf,1,1,1,1,2,2,2,2,3,0,1,1,0,0,0
294360227,294359201,20746427,41.1790421,-8.6036193,-1.0329852,-0.4066515,-0.39911586,0.00044288504,-0.00038057796,1.0818243e-05,0.15009144,0.12466108,-0.9516328,-1.0152456,-0.005952366,-0.0004691705,0.0036611534,3.5376952,-2.653652,-1.6907861,0.6314821,-0.21791902,115.71866,2.1239376,0.35270876,0.3023298,0.1821127,0.09764111,inf,inf,inf,inf,1,1,1,1,2,2,2,2,3,0,1,1,0,0,0
294470936,294469152,20746427,41.1790421,-8.6036193,-1.0226417,-0.38759533,-0.5095879,0.00044288504,-0.00038057796,1.0818243e-05,0.11850354,0.13740733,-0.9424328,-1.0051982,-0.005952366,-0.0004691705,0.0036611534,-0.665906,2.395453,1.6649586,0.64628243,-0.21791902,115.71866,2.2344098,0.34464926,0.29852185,0.18112816,0.09630824,inf,inf,inf,inf,1,1,1,1,2,2,2,2,3,0,1,1,0,0,0
294570839,294569107,20746427,41.1790421,-8.6036193,-1.0125486,-0.37008482,-0.60865873,0.00044288504,-0.00038057796,1.0818243e-05,0.11114937,0.1372044,-0.92949986,-0.99088556,-0.005952366,-0.0004691705,0.0036611534,0.32607248,-1.2981801,-1.3863597,0.66064733,-0.21791902,115.71866,2.3334806,0.33630323,0.29411104,0.17728955,0.09477345,inf,inf,inf,inf,1,1,1,1,2,2,2,2,3,0,1,1,0,0,0
294670252,294669063,20746427,41.1790421,-8.6036193,-0.9947847,-0.34703642,-0.7048715,0.00044288504,-0.00038057796,1.0818243e-05,0.10256052,0.15191314,-0.91825587,-0.9766275,-0.005952366,-0.0004691705,0.0036611534,-2.261073,2.1271842,1.2960863,0.67418784,-0.21791902,115.71866,2.4296932,0.34433782,0.2984709,0.19264105,0.09634403,inf,inf,inf,inf,1,1,1,1,2,2,2,2,3,0,1,1,0,0,0
294771296,294769018,20746427,41.1790421,-8.6036193,-0.9791086,-0.32522762,-0.79709464,0.00044288504,-0.00038057796,1.0818243e-05,0.11617025,0.1506259,-0.8437625,-0.8987721,-0.005952366,-0.0004691705,0.0036611534,1.0090762,2.2108908,2.6960642,0.6842356,-0.21791902,115.71866,2.5219164,0.33581766,0.29404938,0.18660566,0.094819725,inf,inf,inf,inf,1,1,1,1,2,2,2,2,3,0,1,1,0,0,0
294870142,294868974,20746427,41.1790421,-8.6036193,-0.9682045,-0.30150086,-0.87760717,0.00044288504,-0.00038057796,1.0818243e-05,0.11366592,0.15822877,-0.7014043,-0.75351137,-0.005952366,-0.0004691705,0.0036611534,-1.658493,2.0459564,1.9711815,0.6942696,-0.21791902,115.71866,2.602429,0.3439002,0.29841107,0.20184143,0.09638768,inf,inf,inf,inf,1,1,1,1,2,2,2,2,3,0,1,1,0,0,0
294970847,294968931,20746427,41.1790421,-8.6036193,-0.9571588,-0.2792853,-0.9443826,0.00044288504,-0.00038057796,1.0818243e-05,0.1113835,0.14831054,-0.55051005,-0.6004582,-0.005952366,-0.0004691705,0.0036611534,3.1897352,-1.1504549,1.2767265,0.7039008,-0.21791902,115.71866,2.6692045,0.33509701,0.29396573,0.19234306,0.09485192,inf,inf,inf,inf,1,1,1,1,2,2,2,2,3,1,1,1,0,0,0
295060077,295058889,20746427,41.1790421,-8.6036193,-0.9484078,-0.25718078,-0.9951766,0.00044288504,-0.00038057796,1.0818243e-05,0.11851859,0.13547146,-0.4025647,-0.45592046,-0.005952366,-0.0004691705,0.0036611534,1.3052496,-2.5081234,0.45805925,0.7096119,-0.21791902,115.71866,2.7199984,0.3424166,0.29767436,0.20518267,0.09624582,inf,inf,inf,inf,1,1,1,1,2,2,2,2,3,1,1,1,0,0,0
295169983,295168840,20746427,41.1790421,-8.6036193,-0.93580323,-0.23440032,-1.0401332,0.00044288504,-0.00038057796,1.0818243e-05,0.120977566,0.13992092,-0.28730577,-0.3426378,-0.005952366,-0.0004691705,0.0036611534,-0.26448458,1.0736337,0.33373907,0.7164066,-0.21791902,115.71866,2.764955,0.35262173,0.30277696,0.2210693,0.0980145,inf,inf,inf,inf,1,1,1,1,2,2,2,2,3,1,1,1,0,0,0
295269906,295268796,20746427,41.1790421,-8.6036193,-0.9242251,-0.20764087,-1.0848316,0.00044288504,-0.00038057796,1.0818243e-05,0.14591494,0.115999706,-0.3112567,-0.3758243,-0.005952366,-0.0004691705,0.0036611534,2.599075,-2.0354626,-0.46556452,0.7231027,-0.21791902,115.71866,2.8096533,0.34247053,0.2982124,0.20852725,0.09648906,inf,inf,inf,inf,1,1,1,1,2,2,2,2,3,1,1,1,0,0,0
295370495,295368751,20746427,41.1790421,-8.6036193,-0.9115388,-0.18417051,-1.1300461,0.00044288504,-0.00038057796,1.0818243e-05,0.14029136,0.1148961,-0.3597288,-0.42924488,-0.005952366,-0.0004691705,0.0036611534,-0.38225493,-2.2457135,-0.985359,0.7274986,-0.21791902,115.71866,2.854868,0.33326906,0.2937847,0.19712617,0.09497992,inf,inf,inf,inf,1,1,1,1,2,2,2,2,3,1,1,1,0,0,0
295469814,295468707,20746427,41.1790421,-8.6036193,-0.9010081,-0.1599756,-1.17877,0.00044288504,-0.00038057796,1.0818243e-05,0.13702196,0.109886855,-0.39106262,-0.46512505,-0.005952366,-0.0004691705,0.0036611534,-1.8742809,1.4951729,-0.8792254,0.72756475,-0.21791902,115.71866,2.9035916,0.3417385,0.2981546,0.21113932,0.096589915,inf,inf,inf,inf,1,1,1,1,2,2,2,2,3,1,1,1,0,0,0
295570467,295568662,20746427,41.1790421,-8.6036193,-0.8890258,-0.13927709,-1.2278366,0.00044288504,-0.00038057796,1.0818243e-05,0.17088927,0.1004207,-0.38758796,-0.46343023,-0.005952366,-0.0004691705,0.0036611534,3.0719254,-0.917556,-0.27078176,0.7272996,-0.21791902,115.71866,2.9526584,0.33235008,0.29369614,0.1979215,0.09506989,inf,inf,inf,inf,1,1,1,1,2,2,2,2,3,1,1,1,0,0,0
295670406,295668618,20746427,41.1790421,-8.6036193,-0.87846273,-0.11402752,-1.2782944,0.00044288504,-0.00038057796,1.0818243e-05,0.17042266,0.08667582,-0.4192503,-0.49678782,-0.005952366,-0.0004691705,0.0036611534,2.992892,-1.5884587,-1.9465531,0.7239478,-0.21791902,115.71866,3.0031161,0.3409648,0.29806995,0.2106625,0.09666668,inf,inf,inf,inf,1,1,1,1,2,2,2,2,3,1,1,1,0,0,0
295770324,295768574,20746427,41.1790421,-8.6036193,-0.8669163,-0.09328684,-1.3278124,0.00044288504,-0.00038057796,1.0818243e-05,0.14385511,0.083459035,-0.41259667,-0.48955625,-0.005952366,-0.0004691705,0.0036611534,-0.35898608,-1.9356099,-0.4862504,0.72236776,-0.21791902,115.71866,3.0526342,0.33150598,0.29361233,0.19684877,0.09514874,inf,inf,inf,inf,1,1,1,1,2,2,2,2,3,1,1,1,0,0,0
295869716,295868529,20746427,41.1790421,-8.6036193,-0.8569771,-0.06961897,-1.3757753,0.00044288504,-0.00038057796,1.0818243e-05,0.13492128,0.064916566,-0.40581688,-0.48178697,-0.005952366,-0.0004691705,0.0036611534,1.6736946,-2.7486277,-1.7251972,0.7215313,-0.21791902,115.71866,3.1005971,0.34024844,0.29799083,0.20855069,0.09677913,inf,inf,inf,inf,1,1,1,1,2,2,2,2,3,1,1,1,0,0,0
295970244,295968485,20746427,41.1790421,-8.6036193,-0.84767914,-0.051919777,-1.4216146,0.00044288504,-0.00038057796,1.0818243e-05,0.109804265,0.05429022,-0.38990843,-0.4636459,-0.005952366,-0.0004691705,0.0036611534,-0.65444446,-2.050675,-1.9126357,0.71988404,-0.21791902,115.71866,3.1464365,0.35020345,0.3024512,0.22049363,0.098391764,inf,inf,inf,inf,1,1,1,1,2,2,2,2,3,1,1,1,0,0,0
296069570,296068440,20746427,41.1790421,-8.6036193,-0.83913606,-0.029927632,-1.466198,0.00044288504,-0.00038057796,1.0818243e-05,0.079456955,0.042075574,-0.40050375,-0.4715958,-0.005952366,-0.0004691705,0.0036611534,-2.6530628,0.60825235,0.10591869,0.72030765,-0.21791902,115.71866,3.1910198,0.33948094,0.29787993,0.20502715,0.096887104,inf,inf,inf,inf,1,1,1,1,2,2,2,2,3,1,1,1,0,0,0
296170156,296168396,20746427,41.1790421,-8.6036193,-0.83080494,-0.013866534,-1.510122,0.00044288504,-0.00038057796,1.0818243e-05,0.07326202,0.026969273,-0.40408248,-0.47172827,-0.005952366,-0.0004691705,0.0036611534,-2.2575862,2.187359,0.80451417,0.71966696,-0.21791902,115.71866,3.2349439,0.3299306,0.29343042,0.19142647,0.09538714,inf,inf,inf,inf,1,1,1,1,2,2,2,2,3,1,1,1,0,0,0
296269385,296268351,20746427,41.1790421,-8.6036193,-0.82237315,0.0043027,-1.5567132,0.00044288504,-0.00038057796,1.0818243e-05,0.07402612,0.005626674,-0.42757446,-0.49283093,-0.005952366,-0.0004691705,0.0036611534,0.32363176,2.7820747,0.50720805,0.71676016,-0.21791902,115.71866,3.2815351,0.33884257,0.29780978,0.20159821,0.097025074,inf,inf,inf,inf,1,1,1,1,2,2,2,2,3,1,1,1,0,0,0
296369332,296368306,20746427,41.1790421,-8.6036193,-0.81422615,0.015518987,-1.6052455,0.00044288504,-0.00038057796,1.0818243e-05,0.062356055,-0.013317142,-0.45082474,-0.5133378,-0.005952366,-0.0004691705,0.0036611534,1.3186939,1.2425976,0.9278075,0.71385074,-0.21791902,115.71866,3.3300672,0.3488864,0.30227688,0.21203606,0.098643884,inf,inf,inf,inf,1,1,1,1,2,2,2,2,3,1,1,1,0,0,0
296469208,296468262,20746427,41.1790421,-8.6036193,-0.8092738,0.024840722,-1.6567528,0.00044288504,-0.00038057796,1.0818243e-05,0.052535087,-0.030917356,-0.46469644,-0.5254837,-0.005952366,-0.0004691705,0.0036611534,1.7953352,-0.1692969,1.4733521,0.70942557,-0.21791902,115.71866,3.3815746,0.33813158,0.2977151,0.19777678,0.09713195,inf,inf,inf,inf,1,1,1,1,2,2,2,2,3,1,1,1,0,0,0
296570135,296568218,20746427,41.1790421,-8.6036193,-0.8041356,0.028671935,-1.7087563,0.00044288504,-0.00038057796,1.0818243e-05,0.051447816,-0.049787372,-0.46787137,-0.52661973,-0.005952366,-0.0004691705,0.0036611534,-0.017206972,-0.5075654,-0.49718702,0.7067983,-0.21791902,115.71866,3.433578,0.32856715,0.29327345,0.18503705,0.09562404,inf,inf,inf,inf,1,1,1,1,2,2,2,2,3,1,1,1,0,0,0
296669130,296668173,20746427,41.1790421,-8.6036193,-0.79683334,0.03208816,-1.7610937,0.00044288504,-0.00038057796,1.0818243e-05,0.057257697,-0.078705594,-0.49117082,-0.5475814,-0.005952366,-0.0004691705,0.0036611534,0.6489431,1.46049,2.5215242,0.7022346,-0.21791902,115.71866,3.4859157,0.33758202,0.2976653,0.19384077,0.097272485,inf,inf,inf,inf,1,1,1,1,2,2,2,2,3,1,1,1,0,0,0
296769923,296768129,20746427,41.1790421,-8.6036193,-0.7892914,0.0308015,-1.8150868,0.00044288504,-0.00038057796,1.0818243e-05,0.05124908,-0.091151305,-0.51930004,-0.57388806,-0.005952366,-0.0004691705,0.0036611534,-0.073333904,3.1730447,-0.43300885,0.6992573,-0.21791902,115.71866,3.5399086,0.32800686,0.29322124,0.1817036,0.09575189,inf,inf,inf,inf,1,1,1,1,2,2,2,2,3,1,1,1,0,0,0
296869267,296868086,20746427,41.1790421,-8.6036193,-0.78518635,0.03209827,-1.867292,0.00044288504,-0.00038057796,1.0818243e-05,0.039999284,-0.09805999,-0.4991445,-0.5510192,-0.005952366,-0.0004691705,0.0036611534,-2.4924812,0.12507099,0.14387631,0.6953079,-0.21791902,115.71866,3.592114,0.33705613,0.29762077,0.18999875,0.09740854,inf,inf,inf,inf,1,1,1,1,2,2,2,2,3,1,1,1,0,0,0
296969774,296968045,20746427,41.1790421,-8.6036193,-0.78171515,0.029054113,-1.9203342,0.00044288504,-0.00038057796,1.0818243e-05,0.036178317,-0.12021658,-0.49769035,-0.54796004,-0.005952366,-0.0004691705,0.0036611534,-0.29976547,-1.277178,-1.3337114,0.6903456,-0.21791902,115.71866,3.645156,0.32743755,0.2931658,0.17814116,0.09589628,inf,inf,inf,inf,1,1,1,1,2,2,2,2,3,1,1,1,0,0,0
297069011,297067997,20746427,41.1790421,-8.6036193,-0.7785356,0.025926908,-1.9740784,0.00044288504,-0.00038057796,1.0818243e-05,0.017082537,-0.12021883,-0.4825811,-0.53216684,-0.005952366,-0.0004691705,0.0036611534,-4.8752522,0.8587394,-0.7396774,0.6805793,-0.21791902,115.71866,3.6989002,0.33650234,0.29757363,0.18584551,0.097542316,inf,inf,inf,inf,1,1,1,1,2,2,2,2,3,1,1,1,0,0,0
297169732,297167954,20746427,41.1790421,-8.6036193,-0.7769974,0.019850269,-2.0293968,0.00044288504,-0.00038057796,1.0818243e-05,0.018740483,-0.114135005,-0.47911146,-0.5303761,-0.005952366,-0.0004691705,0.0036611534,-0.12231896,2.1056244,2.659285,0.65887916,-0.21791902,115.71866,3.7542186,0.32690063,0.29311576,0.17461818,0.096026465,inf,inf,inf,inf,1,1,1,1,2,2,2,2,3,1,1,1,0,0,0
297268947,297267906,20746427,41.1790421,-8.6036193,-0.77996016,0.014750303,-2.0856,0.00044288504,-0.00038057796,1.0818243e-05,-0.0027197693,-0.12948027,-0.48811027,-0.5414129,-0.005952366,-0.0004691705,0.0036611534,0.024083773,-1.1909397,0.3245138,0.6270015,-0.21791902,115.71866,3.8104217,0.33596766,0.2975322,0.18177855,0.09769592,inf,inf,inf,inf,1,1,1,1,2,2,2,2,3,1,1,1,0,0,0
297369537,297367862,20746427,41.1790421,-8.6036193,-0.78421515,0.007415566,-2.142474,0.00044288504,-0.00038057796,1.0818243e-05,-0.057821203,-0.11189235,-0.47235802,-0.5283326,-0.005952366,-0.0004691705,0.0036611534,-3.4281116,1.2649766,-0.12514994,0.59730786,-0.21791902,115.71866,3.8672957,0.32638714,0.2930711,0.1713519,0.09615935,inf,inf,inf,inf,1,1,1,1,2,2,2,2,3,1,1,1,0,0,0
297468980,297467817,20746427,41.1790421,-8.6036193,-0.79230154,1.2562901e-05,-2.1991737,0.00044288504,-0.00038057796,1.0818243e-05,-0.07425542,-0.1220881,-0.48905578,-0.5465849,-0.005952366,-0.0004691705,0.0036611534,-3.3217046,-0.9336013,0.92750466,0.5751338,-0.21791902,115.71866,3.9239955,0.3354449,0.29749674,0.17833371,0.09785781,inf,inf,inf,inf,1,1,1,1,2,2,2,2,3,1,1,1,0,0,0
297569474,297567773,20746427,41.1790421,-8.6036193,-0.80256623,-0.00993393,-2.2558107,0.00044288504,-0.00038057796,1.0818243e-05,-0.12140408,-0.13125235,-0.4724068,-0.5320826,-0.005952366,-0.0004691705,0.0036611534,-0.39892527,-3.2271214,1.5953312,0.5589848,-0.21791902,115.71866,3.9806325,0.3258937,0.29303092,0.16848212,0.096328475,inf,inf,inf,inf,1,1,1,1,2,2,2,2,3,1,1,1,0,0,0
297668854,297667729,20746427,41.1790421,-8.6036193,-0.81669915,-0.021013817,-2.3066754,0.00044288504,-0.00038057796,1.0818243e-05,-0.11422278,-0.1237637,-0.3887506,-0.45116696,-0.005952366,-0.0004691705,0.0036611534,-0.06353406,2.8791208,0.6340729,0.54824424,-0.21791902,115.71866,4.031497,0.3349309,0.29746675,0.17527522,0.09801434,inf,inf,inf,inf,1,1,1,1,2,2,2,2,3,1,1,1,0,0,0
297769612,297767684,20746427,41.1790421,-8.6036193,-0.8329685,-0.03233431,-2.346572,0.00044288504,-0.00038057796,1.0818243e-05,-0.1477975,-0.09719706,-0.19559991,-0.26091963,-0.005952366,-0.0004691705,0.0036611534,1.4524417,0.7585635,0.90307635,0.53561705,-0.21791902,115.71866,4.071394,0.32544243,0.29299945,0.16545302,0.09647834,inf,inf,inf,inf,1,1,1,1,2,2,2,2,3,1,1,1,0,0,0
297868791,297867639,20746427,41.1790421,-8.6036193,-0.8556132,-0.040491723,-2.37039,0.00044288504,-0.00038057796,1.0818243e-05,-0.1617615,-0.0762062,-0.027963836,-0.09942284,-0.005952366,-0.0004691705,0.0036611534,-0.6422552,-1.0192676,1.064935,0.52167517,-0.21791902,115.71866,4.095212,0.33444002,0.29743624,0.17128053,0.098185584,inf,inf,inf,inf,1,1,1,1,2,2,2,2,3,1,1,1,0,0,0
297969455,297967595,20746427,41.1790421,-8.6036193,-0.87742114,-0.047848906,-2.3813384,0.00044288504,-0.00038057796,1.0818243e-05,-0.17208095,-0.061110184,0.080428876,0.0017667417,-0.005952366,-0.0004691705,0.0036611534,1.2678466,-2.4220505,0.42166948,0.5097409,-0.21791902,115.71866,4.10616,0.32505077,0.2929591,0.16200224,0.09664644,inf,inf,inf,inf,1,1,1,1,2,2,2,2,3,1,1,1,0,0,0
298068685,298067550,20746427,41.1790421,-8.6036193,-0.9008653,-0.058847696,-2.3928869,0.00044288504,-0.00038057796,1.0818243e-05,-0.19577874,-0.04145242,0.066894084,-0.02391753,-0.005952366,-0.0004691705,0.0036611534,-0.44008848,2.2329257,-0.9865563,0.49978524,-0.21791902,115.71866,4.1177087,0.3339924,0.29740626,0.16786352,0.0983423,inf,inf,inf,inf,1,1,1,1,2,2,2,2,3,1,1,1,0,0,0
298169404,298167506,20746427,41.1790421,-8.6036193,-0.92525727,-0.06822906,-2.4089234,0.00044288504,-0.00038057796,1.0818243e-05,-0.2298903,-0.020394396,0.037279107,-0.06403731,-0.005952366,-0.0004691705,0.0036611534,-0.31781715,2.81809,1.3732351,0.4895857,-0.21791902,115.71866,4.133745,0.32467127,0.2929312,0.15976135,0.09681321,inf,inf,inf,inf,1,1,1,1,2,2,2,2,3,1,1,1,0,0,0
298268594,298267461,20746427,41.1790421,-8.6036193,-0.9577729,-0.076315,-2.425983,0.00044288504,-0.00038057796,1.0818243e-05,-0.23098621,-0.012343237,0.04528514,-0.06687491,-0.005952366,-0.0004691705,0.0036611534,1.0607584,2.397723,0.27001604,0.48054814,-0.21791902,115.71866,4.1508045,0.3335818,0.29738918,0.16615224,0.0985354,inf,inf,inf,inf,1,1,1,1,2,2,2,2,3,1,1,1,0,0,0
298369265,298367417,20746427,41.1790421,-8.6036193,-0.9887678,-0.08284026,-2.4431021,0.00044288504,-0.00038057796,1.0818243e-05,-0.2518545,-0.0022967006,0.053034134,-0.06782881,-0.005952366,-0.0004691705,0.0036611534,-1.0433102,1.9785057,2.862489,0.47365978,-0.21791902,115.71866,4.167924,0.3243078,0.29290867,0.1581216,0.09697693,inf,inf,inf,inf,1,1,1,1,2,2,2,2,3,1,1,1,0,0,0
298468618,298467372,20746427,41.1790421,-8.6036193,-1.022051,-0.0876965,-2.4552166,0.00044288504,-0.00038057796,1.0818243e-05,-0.24229154,0.021256464,0.053881533,-0.071075864,-0.005952366,-0.0004691705,0.0036611534,-3.518347,1.6024407,-0.28405166,0.46630576,-0.21791902,115.71866,4.1800385,0.3331866,0.29737782,0.16417323,0.098689795,inf,inf,inf,inf,1,1,1,1,2,2,2,2,3,1,1,1,0,0,0
298569152,298567330,20746427,41.1790421,-8.6036193,-1.0526155,-0.091374084,-2.4630237,0.00044288504,-0.00038057796,1.0818243e-05,-0.22783107,0.012042932,0.0979304,-0.028506128,-0.005952366,-0.0004691705,0.0036611534,-1.0099785,-0.31544888,0.40176493,0.45955244,-0.21791902,115.71866,4.187845,0.3239806,0.2928973,0.15649755,0.09713286,inf,inf,inf,inf,1,1,1,1,2,2,2,2,3,1,1,1,0,0,0
298668501,298667283,20746427,41.1790421,-8.6036193,-1.0832392,-0.09569365,-2.460244,0.00044288504,-0.00038057796,1.0818243e-05,-0.20254447,0.0006768121,0.13465431,0.01278282,-0.005952366,-0.0004691705,0.0036611534,-2.7205338,-0.8693736,1.0700943,0.45656312,-0.21791902,115.71866,4.1850657,0.33282128,0.29737663,0.16204281,0.09881439,inf,inf,inf,inf,1,1,1,1,2,2,2,2,3,1,1,1,0,0,0
298769308,298767239,20746427,41.1790421,-8.6036193,-1.1100781,-0.09994041,-2.4546256,0.00044288504,-0.00038057796,1.0818243e-05,-0.1836514,0.013438038,0.124217376,0.007963891,-0.005952366,-0.0004691705,0.0036611534,-0.6576676,2.9629157,-0.5381391,0.4551266,-0.21791902,115.71866,4.179447,0.32368577,0.29288927,0.1544318,0.09720809,inf,inf,inf,inf,1,1,1,1,2,2,2,2,3,1,1,1,0,0,0
298868392,298867194,20746427,41.1790421,-8.6036193,-1.1430014,-0.1041581,-2.4458234,0.00044288504,-0.00038057796,1.0818243e-05,-0.1637951,0.003455852,0.12967812,0.02108681,-0.005952366,-0.0004691705,0.0036611534,3.6920352,-0.36815554,-0.76077104,0.45682323,-0.21791902,115.71866,4.170645,0.3324867,0.2973771,0.16023093,0.09891469,inf,inf,inf,inf,1,1,1,1,2,2,2,2,3,1,1,1,0,0,0
298968951,298967150,20746427,41.1790421,-8.6036193,-1.1722293,-0.107394725,-2.4357712,0.00044288504,-0.00038057796,1.0818243e-05,-0.17107414,-0.008911556,0.1384472,0.038149413,-0.005952366,-0.0004691705,0.0036611534,-2.484793,-1.052138,0.32532325,0.46113232,-0.21791902,115.71866,4.160593,0.32340962,0.29288882,0.15304023,0.0972972,inf,inf,inf,inf,1,1,1,1,2,2,2,2,3,1,1,1,0,0,0
299068391,299067105,20746427,41.1790421,-8.6036193,-1.2066674,-0.10822163,-2.4207928,0.00044288504,-0.00038057796,1.0818243e-05,-0.16023093,0.00071814307,0.1531313,0.064723596,-0.005952366,-0.0004691705,0.0036611534,2.1414254,0.67831624,2.177932,0.4649401,-0.21791902,115.71866,4.1456146,0.33217594,0.29738504,0.1585765,0.09898096,inf,inf,inf,inf,1,1,1,1,2,2,2,2,3,1,1,1,0,0,0
299168906,299167061,20746427,41.1790421,-8.6036193,-1.2378188,-0.10878356,-2.4055185,0.00044288504,-0.00038057796,1.0818243e-05,-0.17264777,0.00820967,0.109179564,0.031541243,-0.005952366,-0.0004691705,0.0036611534,-1.9490889,1.9109217,-0.9478585,0.46889457,-0.21791902,115.71866,4.1303406,0.323136,0.29288834,0.1516607,0.09737713,inf,inf,inf,inf,1,1,1,1,2,2,2,2,3,1,1,1,0,0,0
299268222,299267016,20746427,41.1790421,-8.6036193,-1.271785,-0.10955854,-2.3881474,0.00044288504,-0.00038057796,1.0818243e-05,-0.16006024,-0.0014461431,0.12861346,0.06374211,-0.005952366,-0.0004691705,0.0036611534,-2.6702526,0.13956359,-1.5065529,0.47375116,-0.21791902,115.71866,4.1129694,0.3318698,0.29739264,0.1573389,0.099077865,inf,inf,inf,inf,1,1,1,1,2,2,2,2,3,1,1,1,0,0,0
299368791,299366972,20746427,41.1790421,-8.6036193,-1.2994224,-0.11063247,-2.3743668,0.00044288504,-0.00038057796,1.0818243e-05,-0.120338656,-0.010878321,0.096625894,0.041894525,-0.005952366,-0.0004691705,0.0036611534,0.4779777,0.5703816,0.13066153,0.47811428,-0.21791902,115.71866,4.099189,0.32288128,0.29288733,0.15047751,0.097439714,inf,inf,inf,inf,1,1,1,1,2,2,2,2,3,1,1,1,0,0,0
299468114,299466927,20746427,41.1790421,-8.6036193,-1.3255634,-0.10779502,-2.3621526,0.00044288504,-0.00038057796,1.0818243e-05,-0.07395056,-0.021709524,0.076191284,0.031813584,-0.005952366,-0.0004691705,0.0036611534,2.2762604,-1.7694447,0.19170621,0.4836589,-0.21791902,115.71866,4.086974,0.33158487,0.297398,0.15605618,0.09910698,inf,inf,inf,inf,1,1,1,1,2,2,2,2,3,1,1,1,0,0,0
299568722,299566883,20746427,41.1790421,-8.6036193,-1.3445165,-0.105266646,-2.3533068,0.00044288504,-0.00038057796,1.0818243e-05,-0.028849553,-0.016310448,0.060800843,0.023473438,-0.005952366,-0.0004691705,0.0036611534,3.8868747,-0.9141332,-0.0128202755,0.49016944,-0.21791902,115.71866,4.078129,0.32258442,0.29286283,0.14961348,0.097453035,inf,inf,inf,inf,1,1,1,1,2,2,2,2,3,1,1,1,0,0,0
299667935,299666838,20746427,41.1790421,-8.6036193,-1.3646086,-0.09984511,-2.338451,0.00044288504,-0.00038057796,1.0818243e-05,0.008734516,-0.0042521413,0.06690456,0.040788826,-0.005952366,-0.0004691705,0.0036611534,0.22620524,2.7624042,1.7147014,0.49327794,-0.21791902,115.71866,4.0632725,0.33125606,0.29844508,0.15524821,0.09929807,inf,inf,inf,inf,1,1,1,1,2,2,2,2,3,1,1,1,0,0,0
299768594,299766794,20746427,41.1790421,-8.6036193,-1.3766958,-0.09475345,-2.3293538,0.00044288504,-0.00038057796,1.0818243e-05,0.037682254,-0.016569432,-0.0316147,-0.049229454,-0.005952366,-0.0004691705,0.0036611534,2.1472764,-2.5771224,-2.0381954,0.495154,-0.21791902,115.71866,4.0541754,0.3222255,0.29382384,0.14892392,0.09764386,inf,inf,inf,inf,1,1,1,1,2,2,2,2,3,1,1,1,0,0,0
299867780,299866749,20746427,41.1790421,-8.6036193,-1.3912834,-0.08524391,-2.3274097,0.00044288504,-0.00038057796,1.0818243e-05,0.059597723,0.007401783,-0.11543486,-0.122378066,-0.005952366,-0.0004691705,0.0036611534,-0.77690494,1.5371962,-0.7546468,0.49903762,-0.21791902,115.71866,4.052232,0.33086324,0.29838476,0.15467736,0.09931565,inf,inf,inf,inf,1,1,1,1,2,2,2,2,3,1,1,1,0,0,0
299967748,299966707,20746427,41.1790421,-8.6036193,-1.3971618,-0.0774496,-2.331522,0.00044288504,-0.00038057796,1.0818243e-05,0.113844775,-8.74917e-05,-0.10669582,-0.10694537,-0.005952366,-0.0004691705,0.0036611534,1.7711741,1.1061579,1.7689276,0.4988817,-0.21791902,115.71866,4.056344,0.34013352,0.30304208,0.16056225,0.101012394,inf,inf,inf,inf,1,1,1,1,2,2,2,2,3,1,1,1,0,0,0
300067699,300066660,20746427,41.1790421,-8.6036193,-1.4067796,-0.06586252,-2.327903,0.00044288504,-0.00038057796,1.0818243e-05,0.12111957,0.01468883,-0.109748594,-0.095957406,-0.005952366,-0.0004691705,0.0036611534,-0.6937966,0.7595682,1.7781593,0.49903154,-0.21791902,115.71866,4.052725,0.3302944,0.29824603,0.15396866,0.099307075,inf,inf,inf,inf,1,1,1,1,2,2,2,2,3,1,1,1,0,0,0
300167692,300166616,20746427,41.1790421,-8.6036193,-1.4087237,-0.057062864,-2.325662,0.00044288504,-0.00038057796,1.0818243e-05,0.1574106,-0.0021940072,-0.09453756,-0.07166535,-0.005952366,-0.0004691705,0.0036611534,0.9344675,1.7141738,1.7616403,0.49988514,-0.21791902,115.71866,4.0504837,0.33950418,0.3029058,0.15932399,0.10100745,inf,inf,inf,inf,1,1,1,1,2,2,2,2,3,1,1,1,0,0,0
300267617,300266571,20746427,41.1790421,-8.6036193,-1.4130019,-0.043026958,-2.3173459,0.00044288504,-0.00038057796,1.0818243e-05,0.13619906,0.009303539,-0.034518696,-0.00043671974,-0.005952366,-0.0004691705,0.0036611534,-3.650813,2.6057954,-0.18513247,0.49888936,-0.21791902,115.71866,4.0421677,0.32971293,0.2980992,0.15273273,0.09930722,inf,inf,inf,inf,1,1,1,1,2,2,2,2,3,1,1,1,0,0,0
300368634,300366527,20746427,41.1790421,-8.6036193,-1.4120435,-0.031229712,-2.3042884,0.00044288504,-0.00038057796,1.0818243e-05,0.17598844,-0.015362108,0.06166674,0.10182378,-0.005952366,-0.0004691705,0.0036611534,2.4048283,-2.1253612,-1.05564,0.49828598,-0.21791902,115.71866,4.02911,0.3207735,0.293439,0.1458911,0.097671084,inf,inf,inf,inf,1,1,1,1,2,2,2,2,3,1,1,1,0,0,0
300467496,300466482,20746427,41.1790421,-8.6036193,-1.4106752,-0.017299633,-2.2872484,0.00044288504,-0.00038057796,1.0818243e-05,0.17987563,-0.0053685643,0.07107242,0.11652113,-0.005952366,-0.0004691705,0.0036611534,0.503619,0.8219751,1.3480697,0.4965407,-0.21791902,115.71866,4.01207,0.32928333,0.29801038,0.1507384,0.09934503,inf,inf,inf,inf,1,1,1,1,2,2,2,2,3,1,1,1,0,0,0
300568305,300566437,20746427,41.1790421,-8.6036193,-1.403474,-0.008447239,-2.273278,0.00044288504,-0.00038057796,1.0818243e-05,0.1946812,-0.033237386,0.04515255,0.09285746,-0.005952366,-0.0004691705,0.0036611534,1.1817279,-2.1426358,0.27102917,0.49288857,-0.21791902,115.71866,3.9980998,0.3203429,0.29333514,0.14454776,0.09770199,inf,inf,inf,inf,1,1,1,1,2,2,2,2,3,1,1,1,0,0,0
300667758,300666395,20746427,41.1790421,-8.6036193,-1.3950894,0.00076377095,-2.26127,0.00044288504,-0.00038057796,1.0818243e-05,0.21197379,-0.051077373,0.015285446,0.066123374,-0.005952366,-0.0004691705,0.0036611534,2.2153409,-1.1124339,-1.3557063,0.49379075,-0.21791902,115.71866,3.9860919,0.3288224,0.29791176,0.14945264,0.099384375,inf,inf,inf,inf,1,1,1,1,2,2,2,2,3,1,1,1,0,0,0
300768092,300766349,20746427,41.1790421,-8.6036193,-1.3812923,0.005387284,-2.2550328,0.00044288504,-0.00038057796,1.0818243e-05,0.2481526,-0.08669232,-0.026682362,0.023722515,-0.005952366,-0.0004691705,0.0036611534,2.5955503,-2.2663767,-0.9366782,0.49132913,-0.21791902,115.71866,3.9798546,0.31990004,0.2932301,0.14363298,0.0977084,inf,inf,inf,inf,1,1,1,1,2,2,2,2,3,1,1,1,0,0,0
300867353,300866308,20746427,41.1790421,-8.6036193,-1.3661362,0.014185154,-2.2504456,0.00044288504,-0.00038057796,1.0818243e-05,0.24914736,-0.092990935,-0.05971285,-0.007962397,-0.005952366,-0.0004691705,0.0036611534,-3.6286907,0.22762588,1.0485595,0.47311246,-0.21791902,115.71866,3.9752674,0.32835692,0.2978115,0.14881961,0.099383175,inf,inf,inf,inf,1,1,1,1,2,2,2,2,3,1,1,1,0,0,0
300968175,300966260,20746427,41.1790421,-8.6036193,-1.3468337,0.016378434,-2.2532833,0.00044288504,-0.00038057796,1.0818243e-05,0.25051728,-0.120497294,-0.089032404,-0.038510576,-0.005952366,-0.0004691705,0.0036611534,-1.7683395,-0.13325927,-2.3260803,0.44635782,-0.21791902,115.71866,3.978105,0.3194743,0.2931235,0.14294477,0.09771621,inf,inf,inf,inf,1,1,1,1,2,2,2,2,3,1,1,1,0,0,0
301067355,301066215,20746427,41.1790421,-8.6036193,-1.3310593,0.018948028,-2.2521374,0.00044288504,-0.00038057796,1.0818243e-05,0.27513456,-0.15781671,-0.07574325,-0.020767866,-0.005952366,-0.0004691705,0.0036611534,0.6566616,-1.2778486,0.2715883,0.4162655,-0.21791902,115.71866,3.9769592,0.32791206,0.29770893,0.14788038,0.099401645,inf,inf,inf,inf,1,1,1,1,2,2,2,2,3,1,1,1,0,0,0
301167888,301166171,20746427,41.1790421,-8.6036193,-1.3131998,0.015565488,-2.25341,0.00044288504,-0.00038057796,1.0818243e-05,0.23796064,-0.17346628,-0.101805,-0.045739766,-0.005952366,-0.0004691705,0.0036611534,-0.87998056,-0.2063067,-1.5631925,0.3814996,-0.21791902,115.71866,3.978232,0.3190507,0.29301536,0.14239518,0.09769711,inf,inf,inf,inf,1,1,1,1,2,2,2,2,3,1,1,1,0,0,0
301267783,301266126,20746427,41.1790421,-8.6036193,-1.295297,0.014316926,-2.253721,0.00044288504,-0.00038057796,1.0818243e-05,0.2311964,-0.21755297,-0.10252935,-0.043268,-0.005952366,-0.0004691705,0.0036611534,0.79579324,-0.530434,0.84331894,0.3447432,-0.21791902,115.71866,3.9785428,0.32746497,0.29760516,0.14723045,0.099400945,inf,inf,inf,inf,1,1,1,1,2,2,2,2,3,1,1,1,0,0,0
301367923,301366082,20746427,41.1790421,-8.6036193,-1.2773389,0.0062878025,-2.258177,0.00044288504,-0.00038057796,1.0818243e-05,0.20948929,-0.24596208,-0.09450911,-0.036617145,-0.005952366,-0.0004691705,0.0036611534,1.2012088,-2.4042463,0.09307323,0.30594477,-0.21791902,115.71866,3.9829988,0.31864104,0.29290566,0.14192647,0.09769317,inf,inf,inf,inf,1,1,1,1,2,2,2,2,3,1,1,1,0,0,0
301467046,301466037,20746427,41.1790421,-8.6036193,-1.2605189,0.0017960886,-2.257534,0.00044288504,-0.00038057796,1.0818243e-05,0.1779177,-0.23245487,-0.071093224,-0.010981088,-0.005952366,-0.0004691705,0.0036611534,-1.8880416,2.2294004,-0.58600813,0.2648248,-0.21791902,115.71866,3.9823558,0.32703397,0.2974989,0.1470168,0.099378735,inf,inf,inf,inf,1,1,1,1,2,2,2,2,3,1,1,1,0,0,0
301568277,301565992,20746427,41.1790421,-8.6036193,-1.243621,-0.007226719,-2.2620351,0.00044288504,-0.00038057796,1.0818243e-05,0.16288215,-0.22907233,-0.11029338,-0.051708013,-0.005952366,-0.0004691705,0.0036611534,0.38244715,-2.6264036,-1.2194828,0.22366297,-0.21791902,115.71866,3.986857,0.31824803,0.29278785,0.14160514,0.09771061,inf,inf,inf,inf,1,1,1,1,2,2,2,2,3,1,1,1,0,0,0
301667043,301665949,20746427,41.1790421,-8.6036193,-1.2262952,-0.016743824,-2.2642438,0.00044288504,-0.00038057796,1.0818243e-05,0.14809272,-0.23272762,-0.084959656,-0.024289364,-0.005952366,-0.0004691705,0.0036611534,-1.8975562,1.959589,1.0036694,0.1806267,-0.21791902,115.71866,3.9890656,0.32662293,0.29737425,0.1469478,0.099399485,inf,inf,inf,inf,1,1,1,1,2,2,2,2,3,1,1,1,0,0,0
301767646,301765905,20746427,41.1790421,-8.6036193,-1.210608,-0.030324662,-2.2715037,0.00044288504,-0.00038057796,1.0818243e-05,0.1301402,-0.24621631,-0.13234404,-0.0734966,-0.005952366,-0.0004691705,0.0036611534,-0.99852127,-1.5722057,0.005317713,0.13928117,-0.21791902,115.71866,3.9963255,0.3178638,0.2926529,0.14181694,0.09770433,inf,inf,inf,inf,1,1,1,1,2,2,2,2,3,1,1,1,0,0,0
301867536,301865859,20746427,41.1790421,-8.6036193,-1.1961172,-0.04166709,-2.2767565,0.00044288504,-0.00038057796,1.0818243e-05,0.12528417,-0.21313827,-0.16582333,-0.105149776,-0.005952366,-0.0004691705,0.0036611534,1.2647744,-0.8741725,-0.0350962,0.09662329,-0.21791902,115.71866,4.0015783,0.32622838,0.29724243,0.14748882,0.09938064,inf,inf,inf,inf,1,1,1,1,2,2,2,2,3,1,1,1,0,0,0
301967621,301965814,20746427,41.1790421,-8.6036193,-1.1834506,-0.055353828,-2.2836676,0.00044288504,-0.00038057796,1.0818243e-05,0.09917246,-0.20386204,-0.12593989,-0.06633925,-0.005952366,-0.0004691705,0.0036611534,-2.6942713,3.279828,-0.57794935,0.052467257,-0.21791902,115.71866,4.0084896,0.3174848,0.29251727,0.14269088,0.09769755,inf,inf,inf,inf,1,1,1,1,2,2,2,2,3,1,1,1,0,0,0
302066715,302065770,20746427,41.1790421,-8.6036193,-1.171805,-0.06780564,-2.285614,0.00044288504,-0.00038057796,1.0818243e-05,0.09095464,-0.1791178,-0.11002737,-0.047763705,-0.005952366,-0.0004691705,0.0036611534,1.3829334,1.3191738,1.6994365,0.008945308,-0.21791902,115.71866,4.010436,0.32584772,0.29711163,0.14839849,0.09939835,inf,inf,inf,inf,1,1,1,1,2,2,2,2,3,1,1,1,0,0,0
302167985,302165725,20746427,41.1790421,-8.6036193,-1.1606851,-0.08069797,-2.2906806,0.00044288504,-0.00038057796,1.0818243e-05,0.07111585,-0.1592973,-0.113746926,-0.053504005,-0.005952366,-0.0004691705,0.0036611534,-0.03350625,-2.9945211,-1.3139149,-0.03618173,-0.21791902,115.71866,4.0155025,0.3171265,0.29238144,0.14363505,0.097709395,inf,inf,inf,inf,1,1,1,1,2,2,2,2,3,1,1,1,0,0,0
302266817,302265681,20746427,41.1790421,-8.6036193,-1.1530514,-0.0929491,-2.291213,0.00044288504,-0.00038057796,1.0818243e-05,0.05695411,-0.1371354,-0.07341404,-0.010937739,-0.005952366,-0.0004691705,0.0036611534,-1.0933323,3.6657207,-0.42109883,-0.0810523,-0.21791902,115.71866,4.016035,0.32549396,0.29697984,0.1499124,0.09940568,inf,inf,inf,inf,1,1,1,1,2,2,2,2,3,1,1,1,0,0,0
302367430,302365636,20746427,41.1790421,-8.6036193,-1.1474117,-0.10605527,-2.2928057,0.00044288504,-0.00038057796,1.0818243e-05,0.031940416,-0.14880158,-0.06698372,-0.0048834565,-0.005952366,-0.0004691705,0.0036611534,0.3544508,-1.527667,0.43913838,-0.12607506,-0.21791902,115.71866,4.0176277,0.31678718,0.2922211,0.1452046,0.097699724,inf,inf,inf,inf,1,1,1,1,2,2,2,2,3,1,1,1,0,0,0
302467335,302465591,20746427,41.1790421,-8.6036193,-1.1462848,-0.120716505,-2.290193,0.00044288504,-0.00038057796,1.0818243e-05,0.007502473,-0.12543559,-0.087255366,-0.021324487,-0.005952366,-0.0004691705,0.0036611534,-0.5760216,3.136067,-0.07745028,-0.17350048,-0.21791902,115.71866,4.0150146,0.3251693,0.29682252,0.15183213,0.09938351,inf,inf,inf,inf,1,1,1,1,2,2,2,2,3,1,1,1,0,0,0
302567455,302565547,20746427,41.1790421,-8.6036193,-1.1476736,-0.13423602,-2.2910712,0.00044288504,-0.00038057796,1.0818243e-05,-0.030904768,-0.13400666,-0.098052904,-0.031033702,-0.005952366,-0.0004691705,0.0036611534,-0.17803425,-3.9751039,-1.1284181,-0.22178128,-0.21791902,115.71866,4.015893,0.31643674,0.29204488,0.14737453,0.09768824,inf,inf,inf,inf,1,1,1,1,2,2,2,2,3,1,1,1,0,0,0
302666510,302665502,20746427,41.1790421,-8.6036193,-1.1524112,-0.15070157,-2.286962,0.00044288504,-0.00038057796,1.0818243e-05,-0.051770683,-0.116898745,-0.08648444,-0.01480729,-0.005952366,-0.0004691705,0.0036611534,0.038498767,0.2821112,-1.7028311,-0.27412117,-0.21791902,115.71866,4.0117836,0.32484722,0.29665014,0.15454018,0.09938816,inf,inf,inf,inf,1,1,1,1,2,2,2,2,3,1,1,1,0,0,0
302767691,302765458,20746427,41.1790421,-8.6036193,-1.1589745,-0.16667672,-2.2893484,0.00044288504,-0.00038057796,1.0818243e-05,-0.0715437,-0.11542714,-0.14119546,-0.067940235,-0.005952366,-0.0004691705,0.0036611534,-0.72201055,4.3871017,-0.89271927,-0.33142066,-0.21791902,115.71866,4.01417,0.31608465,0.29183856,0.14986882,0.0976809,inf,inf,inf,inf,1,1,1,1,2,2,2,2,3,1,1,1,0,0,0
302866710,302865413,20746427,41.1790421,-8.6036193,-1.1720291,-0.1854042,-2.2897248,0.00044288504,-0.00038057796,1.0818243e-05,-0.09812433,-0.12778114,-0.1553374,-0.07640784,-0.005952366,-0.0004691705,0.0036611534,0.7240812,0.5869336,-1.5456394,-0.38613644,-0.21791902,115.71866,4.0145464,0.32453558,0.29644665,0.15768087,0.09936793,inf,inf,inf,inf,1,1,1,1,2,2,2,2,3,1,1,1,0,0,0
302967185,302965369,20746427,41.1790421,-8.6036193,-1.1850276,-0.20096831,-2.297461,0.00044288504,-0.00038057796,1.0818243e-05,-0.10584607,-0.096025206,-0.16755821,-0.0886054,-0.005952366,-0.0004691705,0.0036611534,0.39810434,-0.4356758,0.7755348,-0.4415069,-0.21791902,115.71866,4.0222826,0.31573194,0.29161248,0.15291923,0.09763157,inf,inf,inf,inf,1,1,1,1,2,2,2,2,3,1,1,1,0,0,0
303066407,303065324,20746427,41.1790421,-8.6036193,-1.2014419,-0.21314575,-2.3041775,0.00044288504,-0.00038057796,1.0818243e-05,-0.101888746,-0.07489243,-0.19828391,-0.11617059,-0.005952366,-0.0004691705,0.0036611534,1.0099316,0.42111224,0.8441361,-0.49831247,-0.21791902,115.71866,4.0289993,0.32423767,0.29622197,0.16105174,0.09931458,inf,inf,inf,inf,1,1,1,1,2,2,2,2,3,1,1,1,0,0,0
303167088,303165282,20746427,41.1790421,-8.6036193,-1.2171774,-0.22418804,-2.3147526,0.00044288504,-0.00038057796,1.0818243e-05,-0.10655838,-0.05253745,-0.18242644,-0.1015719,-0.005952366,-0.0004691705,0.0036611534,0.48549312,3.3834634,-1.4497778,-0.55504155,-0.21791902,115.71866,4.0395746,0.31538394,0.29136598,0.15611692,0.09757458,inf,inf,inf,inf,1,1,1,1,2,2,2,2,3,1,1,1,0,0,0
303266336,303265234,20746427,41.1790421,-8.6036193,-1.2365787,-0.2370695,-2.3177755,0.00044288504,-0.00038057796,1.0818243e-05,-0.10856563,-0.061836027,-0.16913132,-0.08243002,-0.005952366,-0.0004691705,0.0036611534,-1.2041041,-1.8717754,-0.8941621,-0.61559397,-0.21791902,115.71866,4.0425973,0.32395315,0.2959771,0.16457552,0.09925492,inf,inf,inf,inf,1,1,1,1,2,2,2,2,3,1,1,1,0,0,0
303366912,303365190,20746427,41.1790421,-8.6036193,-1.252769,-0.24892876,-2.3229184,0.00044288504,-0.00038057796,1.0818243e-05,-0.08551856,-0.057885118,-0.14927189,-0.060846157,-0.005952366,-0.0004691705,0.0036611534,2.1862307,-2.471149,1.6224793,-0.67809016,-0.21791902,115.71866,4.04774,0.31507158,0.29110128,0.15906316,0.09751418,inf,inf,inf,inf,1,1,1,1,2,2,2,2,3,1,1,1,0,0,0
303466276,303465145,20746427,41.1790421,-8.6036193,-1.273507,-0.26111102,-2.3252866,0.00044288504,-0.00038057796,1.0818243e-05,-0.064796805,-0.019713264,-0.17165783,-0.079353966,-0.005952366,-0.0004691705,0.0036611534,1.4890827,4.166355,-1.1467923,-0.738024,-0.21791902,115.71866,4.0501084,0.32371154,0.29570356,0.16784549,0.09917579,inf,inf,inf,inf,1,1,1,1,2,2,2,2,3,1,1,1,0,0,0
303567126,303565106,20746427,41.1790421,-8.6036193,-1.290693,-0.26854783,-2.3346999,0.00044288504,-0.00038057796,1.0818243e-05,-0.08072851,0.022056244,-0.18361646,-0.0918976,-0.005952366,-0.0004691705,0.0036611534,-0.76369786,0.8474008,-1.3001838,-0.79583657,-0.21791902,115.71866,4.0595217,0.31476104,0.29080966,0.16220582,0.09743268,inf,inf,inf,inf,1,1,1,1,2,2,2,2,3,1,1,1,0,0,0
303666166,303665058,20746427,41.1790421,-8.6036193,-1.3152949,-0.27329692,-2.3401809,0.00044288504,-0.00038057796,1.0818243e-05,-0.075725086,0.046265215,-0.15458038,-0.061337877,-0.005952366,-0.0004691705,0.0036611534,0.97016877,-3.440331,1.0831727,-0.8550629,-0.21791902,115.71866,4.0650024,0.32348195,0.29541257,0.17155473,0.099107,inf,inf,inf,inf,1,1,1,1,2,2,2,2,3,1,1,1,0,0,0
303766810,303765012,20746427,41.1790421,-8.6036193,-1.3357623,-0.27243677,-2.3493488,0.00044288504,-0.00038057796,1.0818243e-05,-0.061661746,0.10980719,-0.14730148,-0.05774812,-0.005952366,-0.0004691705,0.0036611534,1.2597177,3.8240306,-1.5997723,-0.91618544,-0.21791902,115.71866,4.0741706,0.31442046,0.29048693,0.16513035,0.09736731,inf,inf,inf,inf,1,1,1,1,2,2,2,2,3,1,1,1,0,0,0
303866126,303864967,20746427,41.1790421,-8.6036193,-1.3618118,-0.2684273,-2.3577647,0.00044288504,-0.00038057796,1.0818243e-05,-0.06041403,0.1353994,-0.16495211,-0.07792968,-0.005952366,-0.0004691705,0.0036611534,-1.6843137,0.6047223,-0.882686,-0.97323734,-0.21791902,115.71866,4.0825863,0.32322106,0.2950919,0.17474642,0.09904031,inf,inf,inf,inf,1,1,1,1,2,2,2,2,3,1,1,1,0,0,0
303966687,303964922,20746427,41.1790421,-8.6036193,-1.3831918,-0.2594809,-2.3690722,0.00044288504,-0.00038057796,1.0818243e-05,-0.047219124,0.16126953,-0.1326371,-0.05181036,-0.005952366,-0.0004691705,0.0036611534,1.2462658,-0.93803215,0.8205073,-1.0287099,-0.21791902,115.71866,4.093894,0.3140624,0.2901537,0.1679279,0.097310476,inf,inf,inf,inf,1,1,1,1,2,2,2,2,3,1,1,1,0,0,0
304065901,304064878,20746427,41.1790421,-8.6036193,-1.4090909,-0.24860741,-2.3755393,0.00044288504,-0.00038057796,1.0818243e-05,-0.050439477,0.19317867,-0.14360574,-0.06513482,-0.005952366,-0.0004691705,0.0036611534,-1.8440273,-0.09590507,-1.5454971,-1.0857159,-0.21791902,115.71866,4.100361,0.32294285,0.29476085,0.17744264,0.09898612,inf,inf,inf,inf,1,1,1,1,2,2,2,2,3,1,1,1,0,0,0
304166760,304164833,20746427,41.1790421,-8.6036193,-1.431191,-0.23491654,-2.3850355,0.00044288504,-0.00038057796,1.0818243e-05,-0.052130662,0.21079656,-0.13453951,-0.059967585,-0.005952366,-0.0004691705,0.0036611534,2.5512094,1.0746088,0.5663953,-1.1433165,-0.21791902,115.71866,4.1098576,0.31374234,0.28982866,0.17006174,0.09727081,inf,inf,inf,inf,1,1,1,1,2,2,2,2,3,1,1,1,0,0,0
304265881,304264788,20746427,41.1790421,-8.6036193,-1.46261,-0.21726035,-2.3950567,0.00044288504,-0.00038057796,1.0818243e-05,-0.08436389,0.20424129,-0.17200135,-0.0984659,-0.005952366,-0.0004691705,0.0036611534,-1.7687317,-1.7953162,2.1613762,-1.1978741,-0.21791902,115.71866,4.119879,0.32270065,0.29443833,0.17966689,0.09895531,inf,inf,inf,inf,1,1,1,1,2,2,2,2,3,1,1,1,0,0,0
304366529,304364744,20746427,41.1790421,-8.6036193,-1.490623,-0.1970405,-2.4101248,0.00044288504,-0.00038057796,1.0818243e-05,-0.103991196,0.21809,-0.1841005,-0.11554702,-0.005952366,-0.0004691705,0.0036611534,-3.4350863,-1.4602789,2.8965755,-1.253028,-0.21791902,115.71866,4.134947,0.31347927,0.28952017,0.17171511,0.09725213,inf,inf,inf,inf,1,1,1,1,2,2,2,2,3,1,1,1,0,0,0
304465787,304464699,20746427,41.1790421,-8.6036193,-1.5256878,-0.17268468,-2.4230227,0.00044288504,-0.00038057796,1.0818243e-05,-0.094743975,0.24820201,-0.17174843,-0.104774565,-0.005952366,-0.0004691705,0.0036611534,-2.2797024,-0.7166297,0.5524288,-1.2913979,-0.21791902,115.71866,4.1478443,0.32251668,0.2941335,0.18133473,0.09894404,inf,inf,inf,inf,1,1,1,1,2,2,2,2,3,1,1,1,0,0,0
304566371,304564654,20746427,41.1790421,-8.6036193,-1.5531124,-0.14630295,-2.439053,0.00044288504,-0.00038057796,1.0818243e-05,-0.06404664,0.26162982,-0.1687103,-0.10672786,-0.005952366,-0.0004691705,0.0036611534,-1.6574948,-1.2931045,0.5347734,-1.3122153,-0.21791902,115.71866,4.1638746,0.31324622,0.2892365,0.17285064,0.09724027,inf,inf,inf,inf,1,1,1,1,2,2,2,2,3,1,1,1,0,0,0
304665668,304664609,20746427,41.1790421,-8.6036193,-1.5810097,-0.11649099,-2.4528587,0.00044288504,-0.00038057796,1.0818243e-05,-0.019889269,0.2853372,-0.17790985,-0.11887882,-0.005952366,-0.0004691705,0.0036611534,-1.9857739,0.7318975,-1.3904793,-1.3246069,-0.21791902,115.71866,4.1776805,0.32235202,0.2938534,0.18230668,0.098930344,inf,inf,inf,inf,1,1,1,1,2,2,2,2,3,1,1,1,0,0,0
304766277,304764565,20746427,41.1790421,-8.6036193,-1.600137,-0.08539985,-2.46976,0.00044288504,-0.00038057796,1.0818243e-05,-0.0021813302,0.27966574,-0.18243669,-0.12799852,-0.005952366,-0.0004691705,0.0036611534,-0.2702053,-1.1275911,1.7933216,-1.3507549,-0.21791902,115.71866,4.194582,0.3130536,0.28896654,0.1734871,0.097233035,inf,inf,inf,inf,1,1,1,1,2,2,2,2,3,1,1,1,0,0,0
304865558,304864520,20746427,41.1790421,-8.6036193,-1.6232046,-0.05279382,-2.4843853,0.00044288504,-0.00038057796,1.0818243e-05,0.034928877,0.30648568,-0.16998275,-0.11764882,-0.005952366,-0.0004691705,0.0036611534,2.514063,2.5286589,0.96142507,-1.4164721,-0.21791902,115.71866,4.209207,0.32221994,0.2935872,0.18260565,0.098935515,inf,inf,inf,inf,1,1,1,1,2,2,2,2,3,1,1,1,0,0,0
304966196,304964475,20746427,41.1790421,-8.6036193,-1.6386541,-0.019489042,-2.4998136,0.00044288504,-0.00038057796,1.0818243e-05,0.03660332,0.29300755,-0.1565551,-0.10909284,-0.005952366,-0.0004691705,0.0036611534,-1.4104978,-2.68669,0.09426165,-1.5018617,-0.21791902,115.71866,4.224635,0.31287995,0.28870916,0.17341906,0.097244866,inf,inf,inf,inf,1,1,1,1,2,2,2,2,3,1,1,1,0,0,0
305065570,305064431,20746427,41.1790421,-8.6036193,-1.6545552,0.018621046,-2.510213,0.00044288504,-0.00038057796,1.0818243e-05,0.09048804,0.31122828,-0.11431482,-0.068974525,-0.005952366,-0.0004691705,0.0036611534,-1.9207028,-0.38520545,0.5864178,-1.5797973,-0.21791902,115.71866,4.235035,0.32209104,0.2933345,0.18224747,0.098958075,inf,inf,inf,inf,1,1,1,1,2,2,2,2,3,1,1,1,0,0,0
305165695,305164386,20746427,41.1790421,-8.6036193,-1.658596,0.055564243,-2.5190785,0.00044288504,-0.00038057796,1.0818243e-05,0.1547267,0.32094312,-0.11048855,-0.06746258,-0.005952366,-0.0004691705,0.0036611534,0.32493466,1.4850401,-1.9040937,-1.6279261,-0.21791902,115.71866,4.2439003,0.33224794,0.2980588,0.19142453,0.10065503,inf,inf,inf,inf,1,1,1,1,2,2,2,2,3,1,1,1,0,0,0
305265442,305264341,20746427,41.1790421,-8.6036193,-1.6666398,0.09884452,-2.5234404,0.00044288504,-0.00038057796,1.0818243e-05,0.20661044,0.32833168,-0.087488346,-0.043395527,-0.005952366,-0.0004691705,0.0036611534,3.7272022,1.1269763,0.09986565,-1.657514,-0.21791902,115.71866,4.2482624,0.32186168,0.29305542,0.18163252,0.09896463,inf,inf,inf,inf,1,1,1,1,2,2,2,2,3,1,1,1,0,0,0
305366000,305364297,20746427,41.1790421,-8.6036193,-1.6636128,0.14117709,-2.5294337,0.00044288504,-0.00038057796,1.0818243e-05,0.27431056,0.32175156,-0.10009968,-0.057209693,-0.005952366,-0.0004691705,0.0036611534,3.276335,-0.43674865,1.6360037,-1.6805903,-0.21791902,115.71866,4.2542553,0.3124823,0.28818622,0.17233686,0.09728202,inf,inf,inf,inf,1,1,1,1,2,2,2,2,3,1,1,1,0,0,0
305465374,305464252,20746427,41.1790421,-8.6036193,-1.6618247,0.18670817,-2.53551,0.00044288504,-0.00038057796,1.0818243e-05,0.2863811,0.33077878,-0.10144858,-0.05697383,-0.005952366,-0.0004691705,0.0036611534,4.5401425,-0.34022224,2.1002512,-1.699117,-0.21791902,115.71866,4.260332,0.3217376,0.29281154,0.1810542,0.09900609,inf,inf,inf,inf,1,1,1,1,2,2,2,2,3,1,1,1,0,0,0
305565943,305564207,20746427,41.1790421,-8.6036193,-1.6513293,0.23066121,-2.5438542,0.00044288504,-0.00038057796,1.0818243e-05,0.31382722,0.3258674,-0.11244353,-0.0685327,-0.005952366,-0.0004691705,0.0036611534,4.5001345,-0.35613036,0.9623598,-1.7176896,-0.21791902,115.71866,4.268676,0.31235576,0.28795734,0.17164473,0.09732051,inf,inf,inf,inf,1,1,1,1,2,2,2,2,3,1,1,1,0,0,0
305665181,305664162,20746427,41.1790421,-8.6036193,-1.6382837,0.279101,-2.5499237,0.00044288504,-0.00038057796,1.0818243e-05,0.3331228,0.33301547,-0.115554325,-0.06957045,-0.005952366,-0.0004691705,0.0036611534,2.881015,1.0506496,2.484427,-1.7315333,-0.21791902,115.71866,4.2747455,0.32163513,0.29258946,0.17993397,0.099046335,inf,inf,inf,inf,1,1,1,1,2,2,2,2,3,1,1,1,0,0,0
305765907,305764117,20746427,41.1790421,-8.6036193,-1.6184884,0.3242959,-2.5566645,0.00044288504,-0.00038057796,1.0818243e-05,0.3473845,0.33324853,-0.10581363,-0.059505958,-0.005952366,-0.0004691705,0.0036611534,3.0896807,0.49767357,-0.12970084,-1.7410814,-0.21791902,115.71866,4.2814865,0.3122304,0.28772253,0.17051637,0.097353995,inf,inf,inf,inf,1,1,1,1,2,2,2,2,3,1,1,1,0,0,0
305865068,305864073,20746427,41.1790421,-8.6036193,-1.596284,0.372949,-2.5585063,0.00044288504,-0.00038057796,1.0818243e-05,0.3655035,0.31731668,-0.0951785,-0.045322716,-0.005952366,-0.0004691705,0.0036611534,3.2971103,-0.11425487,1.4248742,-1.7491081,-0.21791902,115.71866,4.283328,0.3215171,0.29236174,0.17836158,0.0990818,inf,inf,inf,inf,1,1,1,1,2,2,2,2,3,1,1,1,0,0,0
305965014,305964028,20746427,41.1790421,-8.6036193,-1.5684693,0.4172386,-2.5603979,0.00044288504,-0.00038057796,1.0818243e-05,0.37465757,0.2902178,-0.08961968,-0.037014574,-0.005952366,-0.0004691705,0.0036611534,1.0889251,-0.39952862,2.1844823,-1.7567087,-0.21791902,115.71866,4.2852197,0.3121853,0.28752396,0.16912673,0.09741267,inf,inf,inf,inf,1,1,1,1,2,2,2,2,3,1,1,1,0,0,0
306064946,306063983,20746427,41.1790421,-8.6036193,-1.538021,0.461363,-2.5586922,0.00044288504,-0.00038057796,1.0818243e-05,0.3805225,0.2716753,-0.09570651,-0.037882205,-0.005952366,-0.0004691705,0.0036611534,-3.139351,-4.085822,-0.68111783,-1.7621646,-0.21791902,115.71866,4.283514,0.3214847,0.29217198,0.1766451,0.09915111,inf,inf,inf,inf,1,1,1,1,2,2,2,2,3,1,1,1,0,0,0
306165726,306163938,20746427,41.1790421,-8.6036193,-1.5040079,0.4989707,-2.5594854,0.00044288504,-0.00038057796,1.0818243e-05,0.3868342,0.23632628,-0.07038418,-0.010500806,-0.005952366,-0.0004691705,0.0036611534,-1.4684001,1.7003548,-1.9018623,-1.7681571,-0.21791902,115.71866,4.2843075,0.31202433,0.2872933,0.16740003,0.09744972,inf,inf,inf,inf,1,1,1,1,2,2,2,2,3,1,1,1,0,0,0
306264834,306263893,20746427,41.1790421,-8.6036193,-1.4681379,0.53578687,-2.5575004,0.00044288504,-0.00038057796,1.0818243e-05,0.3844048,0.20233238,-0.06458965,-0.0012799582,-0.005952366,-0.0004691705,0.0036611534,-1.7367091,1.6249754,-2.103151,-1.7745415,-0.21791902,115.71866,4.282322,0.32131138,0.2919485,0.17454913,0.09918843,inf,inf,inf,inf,1,1,1,1,2,2,2,2,3,1,1,1,0,0,0
306365540,306363849,20746427,41.1790421,-8.6036193,-1.4310439,0.5656921,-2.555315,0.00044288504,-0.00038057796,1.0818243e-05,0.3694246,0.16420037,-0.059002116,0.0057489085,-0.005952366,-0.0004691705,0.0036611534,-0.24911287,1.971438,-0.35028625,-1.7787321,-0.21791902,115.71866,4.280137,0.31188923,0.28708217,0.16546495,0.09748398,inf,inf,inf,inf,1,1,1,1,2,2,2,2,3,1,1,1,0,0,0
306464853,306463804,20746427,41.1790421,-8.6036193,-1.3934028,0.5958179,-2.54978,0.00044288504,-0.00038057796,1.0818243e-05,0.35818815,0.13293362,-0.06140138,0.006996408,-0.005952366,-0.0004691705,0.0036611534,2.2432296,0.50443137,0.8783298,-1.7782855,-0.21791902,115.71866,4.274602,0.3211542,0.2917447,0.17236193,0.09922465,inf,inf,inf,inf,1,1,1,1,2,2,2,2,3,1,1,1,0,0,0
306565437,306563759,20746427,41.1790421,-8.6036193,-1.3583637,0.6198902,-2.5454872,0.00044288504,-0.00038057796,1.0818243e-05,0.27731043,0.09924797,-0.038331866,0.031974915,-0.005952366,-0.0004691705,0.0036611534,-4.1864405,-3.075385,1.504283,-1.7766012,-0.21791902,115.71866,4.270309,0.31174296,0.28688,0.16354352,0.09751356,inf,inf,inf,inf,1,1,1,1,2,2,2,2,3,1,1,1,0,0,0
306664655,306663714,20746427,41.1790421,-8.6036193,-1.3279173,0.64223605,-2.5390527,0.00044288504,-0.00038057796,1.0818243e-05,0.22155613,0.07598644,-0.051793292,0.022138052,-0.005952366,-0.0004691705,0.0036611534,0.61842924,-1.1264209,-0.8433223,-1.7765664,-0.21791902,115.71866,4.2638745,0.32098025,0.29154998,0.17005825,0.09924793,inf,inf,inf,inf,1,1,1,1,2,2,2,2,3,1,1,1,0,0,0
306765409,306763669,20746427,41.1790421,-8.6036193,-1.3051636,0.65726554,-2.5389552,0.00044288504,-0.00038057796,1.0818243e-05,0.14682825,0.014277922,-0.07393367,-1.111778e-05,-0.005952366,-0.0004691705,0.0036611534,3.5402155,-0.7524699,2.0319836,-1.7831228,-0.21791902,115.71866,4.263777,0.31159326,0.28666866,0.16151625,0.09750921,inf,inf,inf,inf,1,1,1,1,2,2,2,2,3,1,1,1,0,0,0
306865324,306863625,20746427,41.1790421,-8.6036193,-1.2857097,0.66953874,-2.53994,0.00044288504,-0.00038057796,1.0818243e-05,0.07613561,-0.00025107857,-0.10628282,-0.030433407,-0.005952366,-0.0004691705,0.0036611534,2.0799654,-0.3367365,1.7140232,-1.7875842,-0.21791902,115.71866,4.264762,0.32079843,0.29134554,0.16801389,0.09923159,inf,inf,inf,inf,1,1,1,1,2,2,2,2,3,1,1,1,0,0,0
306965283,306963580,20746427,41.1790421,-8.6036193,-1.2698367,0.6777414,-2.5428727,0.00044288504,-0.00038057796,1.0818243e-05,0.06316465,0.0029351963,-0.09908981,-0.023259288,-0.005952366,-0.0004691705,0.0036611534,3.7517347,0.7230754,1.71811,-1.7855121,-0.21791902,115.71866,4.2676945,0.31141075,0.28645685,0.15977898,0.0974991,inf,inf,inf,inf,1,1,1,1,2,2,2,2,3,1,1,1,0,0,0
307064707,307063535,20746427,41.1790421,-8.6036193,-1.2460595,0.68759686,-2.5425403,0.00044288504,-0.00038057796,1.0818243e-05,0.07430856,0.057427254,-0.08971095,-0.011671733,-0.005952366,-0.0004691705,0.0036611534,-3.515774,0.67312926,-0.16415368,-1.7792699,-0.21791902,115.71866,4.267362,0.32058114,0.29114014,0.16596118,0.09922055,inf,inf,inf,inf,1,1,1,1,2,2,2,2,3,1,1,1,0,0,0
307166033,307163490,20746427,41.1790421,-8.6036193,-1.2230734,0.70062023,-2.5490384,0.00044288504,-0.00038057796,1.0818243e-05,0.10974142,0.10497813,-0.11619904,-0.04054067,-0.005952366,-0.0004691705,0.0036611534,3.5120876,-0.53035784,-0.6673198,-1.7726225,-0.21791902,115.71866,4.27386,0.3112185,0.28625706,0.1577855,0.09746808,inf,inf,inf,inf,1,1,1,1,2,2,2,2,3,1,1,1,0,0,0
307264674,307263445,20746427,41.1790421,-8.6036193,-1.1969627,0.7170958,-2.556205,0.00044288504,-0.00038057796,1.0818243e-05,0.11433369,0.14166863,-0.117862776,-0.044980783,-0.005952366,-0.0004691705,0.0036611534,2.5268562,-0.7530696,0.32261088,-1.7686443,-0.21791902,115.71866,4.281027,0.32035875,0.29093757,0.16378558,0.09916103,inf,inf,inf,inf,1,1,1,1,2,2,2,2,3,1,1,1,0,0,0
307365175,307363401,20746427,41.1790421,-8.6036193,-1.1740553,0.73281384,-2.5659745,0.00044288504,-0.00038057796,1.0818243e-05,0.10813582,0.14447889,-0.10389331,-0.037852094,-0.005952366,-0.0004691705,0.0036611534,-2.9263482,-0.070548706,-0.1329167,-1.7696475,-0.21791902,115.71866,4.2907963,0.3110455,0.28605974,0.15591055,0.09741308,inf,inf,inf,inf,1,1,1,1,2,2,2,2,3,1,1,1,0,0,0
307465226,307463356,20746427,41.1790421,-8.6036193,-1.1560509,0.7391519,-2.5740726,0.00044288504,-0.00038057796,1.0818243e-05,0.09559998,0.13296998,-0.110869884,-0.049648024,-0.005952366,-0.0004691705,0.0036611534,-0.38054976,3.0984204,-2.2066417,-1.7755817,-0.21791902,115.71866,4.2988944,0.32014817,0.29074568,0.16161901,0.0991222,inf,inf,inf,inf,1,1,1,1,2,2,2,2,3,1,1,1,0,0,0
307565209,307563311,20746427,41.1790421,-8.6036193,-1.1409922,0.7433706,-2.5850525,0.00044288504,-0.00038057796,1.0818243e-05,0.08290349,0.10199327,-0.111479945,-0.05640531,-0.005952366,-0.0004691705,0.0036611534,2.1498768,1.573462,0.31163627,-1.7802426,-0.21791902,115.71866,4.3098745,0.31088892,0.28588554,0.15402173,0.09739237,inf,inf,inf,inf,1,1,1,1,2,2,2,2,3,1,1,1,0,0,0
307664469,307663266,20746427,41.1790421,-8.6036193,-1.1255871,0.74197185,-2.5944297,0.00044288504,-0.00038057796,1.0818243e-05,0.066282205,0.113346234,-0.145049,-0.092293724,-0.005952366,-0.0004691705,0.0036611534,0.49619895,-0.9995632,0.31567386,-1.7799424,-0.21791902,115.71866,4.3192515,0.31994954,0.29057673,0.15960795,0.09910962,inf,inf,inf,inf,1,1,1,1,2,2,2,2,3,1,1,1,0,0,0
307765539,307763221,20746427,41.1790421,-8.6036193,-1.1129606,0.744384,-2.6114001,0.00044288504,-0.00038057796,1.0818243e-05,0.05999093,0.11977495,-0.17045085,-0.12356853,-0.005952366,-0.0004691705,0.0036611534,3.5315468,0.34838283,-0.35880417,-1.7789056,-0.21791902,115.71866,4.3362217,0.31074092,0.2857145,0.1523199,0.09737635,inf,inf,inf,inf,1,1,1,1,2,2,2,2,3,1,1,1,0,0,0
307864354,307863176,20746427,41.1790421,-8.6036193,-1.1024079,0.7519246,-2.62782,0.00044288504,-0.00038057796,1.0818243e-05,0.02790668,0.094121344,-0.15111977,-0.108392715,-0.005952366,-0.0004691705,0.0036611534,-3.1088705,-2.8867261,-2.11685,-1.7804933,-0.21791902,115.71866,4.352642,0.31976262,0.29041094,0.15781415,0.09907998,inf,inf,inf,inf,1,1,1,1,2,2,2,2,3,1,1,1,0,0,0
307965128,307963131,20746427,41.1790421,-8.6036193,-1.095242,0.75412214,-2.6485677,0.00044288504,-0.00038057796,1.0818243e-05,0.020530615,0.0010403682,-0.21597274,-0.17957048,-0.005952366,-0.0004691705,0.0036611534,3.2553077,-1.1472682,-1.9202205,-1.7826191,-0.21791902,115.71866,4.3733892,0.31060985,0.28555492,0.15063223,0.09735393,inf,inf,inf,inf,1,1,1,1,2,2,2,2,3,1,1,1,0,0,0
308064449,308063087,20746427,41.1790421,-8.6036193,-1.0934148,0.74054587,-2.6694083,0.00044288504,-0.00038057796,1.0818243e-05,-0.027653862,-0.09782692,-0.2038481,-0.1699723,-0.005952366,-0.0004691705,0.0036611534,2.3638473,-1.2908686,1.9954197,-1.7832891,-0.21791902,115.71866,4.39423,0.31958774,0.29025632,0.15609251,0.09907052,inf,inf,inf,inf,1,1,1,1,2,2,2,2,3,1,1,1,0,0,0
308164150,308163041,20746427,41.1790421,-8.6036193,-1.0949103,0.71830505,-2.6953132,0.00044288504,-0.00038057796,1.0818243e-05,-0.03905135,-0.2035743,-0.22978045,-0.20132074,-0.005952366,-0.0004691705,0.0036611534,3.6163695,-1.0284891,1.0685387,-1.7799677,-0.21791902,115.71866,4.420135,0.32921728,0.29505974,0.1614813,0.10077426,inf,inf,inf,inf,1,1,1,1,2,2,2,2,3,1,1,1,0,0,0
308264217,308262997,20746427,41.1790421,-8.6036193,-1.0973216,0.688096,-2.7165961,0.00044288504,-0.00038057796,1.0818243e-05,-0.096332684,-0.27765903,-0.2148595,-0.18653549,-0.005952366,-0.0004691705,0.0036611534,-3.1376264,-0.26122743,3.9392931,-1.7745862,-0.21791902,115.71866,4.4414177,0.31930518,0.2900679,0.15438038,0.09904139,inf,inf,inf,inf,1,1,1,1,2,2,2,2,3,1,1,1,0,0,0
308364902,308362952,20746427,41.1790421,-8.6036193,-1.1034087,0.653178,-2.739352,0.00044288504,-0.00038057796,1.0818243e-05,-0.08917795,-0.32694378,-0.1895622,-0.16523676,-0.005952366,-0.0004691705,0.0036611534,3.833059,0.85336244,-0.7619174,-1.770184,-0.21791902,115.71866,4.464174,0.31022665,0.28519118,0.14771107,0.0973221,inf,inf,inf,inf,1,1,1,1,2,2,2,2,3,1,1,1,0,0,0
308464015,308462907,20746427,41.1790421,-8.6036193,-1.1054226,0.6218652,-2.7582474,0.00044288504,-0.00038057796,1.0818243e-05,-0.11037063,-0.33804247,-0.14504084,-0.124147244,-0.005952366,-0.0004691705,0.0036611534,3.2754416,-0.5599201,1.6277126,-1.7698082,-0.21791902,115.71866,4.4830694,0.31909746,0.28990027,0.15270668,0.09903477,inf,inf,inf,inf,1,1,1,1,2,2,2,2,3,1,1,1,0,0,0
308564642,308562863,20746427,41.1790421,-8.6036193,-1.1115955,0.5881349,-2.7740097,0.00044288504,-0.00038057796,1.0818243e-05,-0.13868009,-0.3262431,-0.1130527,-0.095897615,-0.005952366,-0.0004691705,0.0036611534,-0.14665739,4.783495,0.4939828,-1.7714626,-0.21791902,115.71866,4.4988317,0.31005144,0.28502163,0.14607097,0.09730292,inf,inf,inf,inf,1,1,1,1,2,2,2,2,3,1,1,1,0,0,0
308664139,308662817,20746427,41.1790421,-8.6036193,-1.1196961,0.5506946,-2.7845926,0.00044288504,-0.00038057796,1.0818243e-05,-0.13905855,-0.2947763,-0.107425325,-0.09042023,-0.005952366,-0.0004691705,0.0036611534,0.706439,3.7149801,1.3544127,-1.7724707,-0.21791902,115.71866,4.5094147,0.31886932,0.28973535,0.15092114,0.09901401,inf,inf,inf,inf,1,1,1,1,2,2,2,2,3,1,1,1,0,0,0
308763875,308762772,20746427,41.1790421,-8.6036193,-1.1283356,0.51954406,-2.7953432,0.00044288504,-0.00038057796,1.0818243e-05,-0.12798291,-0.24661192,-0.10616415,-0.09166747,-0.005952366,-0.0004691705,0.0036611534,0.55771434,-0.2519693,0.008516291,-1.7704079,-0.21791902,115.71866,4.520165,0.32828838,0.29455128,0.15584332,0.100701444,inf,inf,inf,inf,1,1,1,1,2,2,2,2,3,1,1,1,0,0,0
308863868,308862727,20746427,41.1790421,-8.6036193,-1.1348969,0.49816352,-2.8032286,0.00044288504,-0.00038057796,1.0818243e-05,-0.10934729,-0.15273905,-0.082914375,-0.06916778,-0.005952366,-0.0004691705,0.0036611534,0.7618608,-0.21193665,-2.7354665,-1.768907,-0.21791902,115.71866,4.5280504,0.3185444,0.28953624,0.14921778,0.09894658,inf,inf,inf,inf,1,1,1,1,2,2,2,2,3,1,1,1,0,0,0
308964505,308962682,20746427,41.1790421,-8.6036193,-1.1415865,0.48391837,-2.8113375,0.00044288504,-0.00038057796,1.0818243e-05,-0.10264558,-0.06980369,-0.06327149,-0.051471557,-0.005952366,-0.0004691705,0.0036611534,1.4501889,0.6908497,-0.68234545,-1.7703514,-0.21791902,115.71866,4.5361595,0.3095986,0.28560287,0.14299862,0.09734732,inf,inf,inf,inf,1,1,1,1,2,2,2,2,3,1,1,1,0,0,0
309063737,309062637,20746427,41.1790421,-8.6036193,-1.1500047,0.46903217,-2.8139584,0.00044288504,-0.00038057796,1.0818243e-05,-0.10536245,-0.029096758,-0.06849339,-0.05387753,-0.005952366,-0.0004691705,0.0036611534,-3.9606116,-0.68233573,1.3056624,-1.7743727,-0.21791902,115.71866,4.53878,0.31831414,0.290361,0.1477094,0.09905002,inf,inf,inf,inf,1,1,1,1,2,2,2,2,3,1,1,1,0,0,0
309163715,309162592,20746427,41.1790421,-8.6036193,-1.1580156,0.46169892,-2.81824,0.00044288504,-0.00038057796,1.0818243e-05,-0.069987625,0.03931967,-0.07948575,-0.06483315,-0.005952366,-0.0004691705,0.0036611534,-0.5025072,3.6101046,-2.0990567,-1.7772475,-0.21791902,115.71866,4.5430617,0.32760358,0.29522264,0.15258229,0.10074323,inf,inf,inf,inf,1,1,1,1,2,2,2,2,3,1,1,1,0,0,0
309263690,309262547,20746427,41.1790421,-8.6036193,-1.1675228,0.45176116,-2.8207345,0.00044288504,-0.00038057796,1.0818243e-05,-0.07235094,0.047051977,-0.081070885,-0.062461372,-0.005952366,-0.0004691705,0.0036611534,2.6018028,0.08464571,1.4034832,-1.7767577,-0.21791902,115.71866,4.545556,0.31798887,0.2901535,0.14652199,0.0989853,inf,inf,inf,inf,1,1,1,1,2,2,2,2,3,1,1,1,0,0,0
309363611,309362503,20746427,41.1790421,-8.6036193,-1.1755058,0.44849765,-2.827444,0.00044288504,-0.00038057796,1.0818243e-05,-0.06773746,0.08567062,-0.089818336,-0.07087546,-0.005952366,-0.0004691705,0.0036611534,-2.7087548,-1.2952182,-0.23473807,-1.7744737,-0.21791902,115.71866,4.552266,0.32721677,0.29501647,0.15133484,0.10068082,inf,inf,inf,inf,1,1,1,1,2,2,2,2,3,1,1,1,0,0,0
309463507,309462458,20746427,41.1790421,-8.6036193,-1.186092,0.44371423,-2.8299575,0.00044288504,-0.00038057796,1.0818243e-05,-0.07206368,0.1163885,-0.07221129,-0.04915883,-0.005952366,-0.0004691705,0.0036611534,-2.9431322,2.4583976,0.4782875,-1.7736887,-0.21791902,115.71866,4.554779,0.3176323,0.28993043,0.14545019,0.098929174,inf,inf,inf,inf,1,1,1,1,2,2,2,2,3,1,1,1,0,0,0
309564280,309562413,20746427,41.1790421,-8.6036193,-1.1955577,0.44363332,-2.833835,0.00044288504,-0.00038057796,1.0818243e-05,-0.057681475,0.13980575,-0.06825752,-0.044473797,-0.005952366,-0.0004691705,0.0036611534,-1.2329354,3.5922832,-0.7887689,-1.7733771,-0.21791902,115.71866,4.5586567,0.30866185,0.28496554,0.13983153,0.09718735,inf,inf,inf,inf,1,1,1,1,2,2,2,2,3,1,1,1,0,0,0
309663418,309662368,20746427,41.1790421,-8.6036193,-1.208446,0.44273502,-2.8330035,0.00044288504,-0.00038057796,1.0818243e-05,-0.057068963,0.13736995,-0.06523399,-0.03778616,-0.005952366,-0.0004691705,0.0036611534,-0.04240357,2.6794848,-1.1516739,-1.7759223,-0.21791902,115.71866,4.557825,0.31722912,0.28972974,0.14449011,0.09889716,inf,inf,inf,inf,1,1,1,1,2,2,2,2,3,1,1,1,0,0,0
309764063,309762323,20746427,41.1790421,-8.6036193,-1.2202872,0.44519302,-2.832845,0.00044288504,-0.00038057796,1.0818243e-05,-0.043620784,0.131196,-0.05789731,-0.028610576,-0.005952366,-0.0004691705,0.0036611534,2.8157883,0.9867105,-0.7660519,-1.7787868,-0.21791902,115.71866,4.557667,0.30818036,0.28471044,0.13898076,0.09714875,inf,inf,inf,inf,1,1,1,1,2,2,2,2,3,1,1,1,0,0,0
309863592,309862278,20746427,41.1790421,-8.6036193,-1.2340657,0.44609094,-2.8305845,0.00044288504,-0.00038057796,1.0818243e-05,-0.024810001,0.120673664,-0.039882217,-0.0068768878,-0.005952366,-0.0004691705,0.0036611534,3.9218888,0.45978993,1.9546375,-1.7828743,-0.21791902,115.71866,4.5554066,0.31670085,0.2894781,0.143563,0.09886003,inf,inf,inf,inf,1,1,1,1,2,2,2,2,3,1,1,1,0,0,0
309964113,309962233,20746427,41.1790421,-8.6036193,-1.2445823,0.44876134,-2.8323517,0.00044288504,-0.00038057796,1.0818243e-05,-0.017810602,0.09992931,-0.0681864,-0.03389305,-0.005952366,-0.0004691705,0.0036611534,2.349297,-1.1360435,0.95760214,-1.7872958,-0.21791902,115.71866,4.5571737,0.30761525,0.28441763,0.13812125,0.09710562,inf,inf,inf,inf,1,1,1,1,2,2,2,2,3,1,1,1,0,0,0
310063182,310062188,20746427,41.1790421,-8.6036193,-1.2574158,0.44966963,-2.837486,0.00044288504,-0.00038057796,1.0818243e-05,-0.026782634,0.061951764,-0.13845755,-0.10129916,-0.005952366,-0.0004691705,0.0036611534,0.10195608,-2.660321,0.64945406,-1.7931342,-0.21791902,115.71866,4.562308,0.31609407,0.28918874,0.14276841,0.098817594,inf,inf,inf,inf,1,1,1,1,2,2,2,2,3,1,1,1,0,0,0
310163890,310162143,20746427,41.1790421,-8.6036193,-1.2694198,0.44995198,-2.8468845,0.00044288504,-0.00038057796,1.0818243e-05,-0.034783855,0.05622126,-0.11014996,-0.073785394,-0.005952366,-0.0004691705,0.0036611534,0.82484096,0.9890639,-0.5859671,-1.8012408,-0.21791902,115.71866,4.5717063,0.307046,0.28410888,0.13763523,0.097062305,inf,inf,inf,inf,1,1,1,1,2,2,2,2,3,1,1,1,0,0,0
310263130,310262099,20746427,41.1790421,-8.6036193,-1.2856195,0.4506721,-2.8508484,0.00044288504,-0.00038057796,1.0818243e-05,-0.061345115,0.03636114,-0.09859025,-0.059400048,-0.005952366,-0.0004691705,0.0036611534,-2.3316247,-2.110711,-2.2477465,-1.8080902,-0.21791902,115.71866,4.5756702,0.3154888,0.28888357,0.14214067,0.09877452,inf,inf,inf,inf,1,1,1,1,2,2,2,2,3,1,1,1,0,0,0
310363808,310362052,20746427,41.1790421,-8.6036193,-1.2995318,0.4516153,-2.8568878,0.00044288504,-0.00038057796,1.0818243e-05,-0.06005289,0.015244986,-0.096662425,-0.057705283,-0.005952366,-0.0004691705,0.0036611534,3.0344799,-0.8372987,1.5051887,-1.8134745,-0.21791902,115.71866,4.58171,0.30651018,0.28382352,0.13693307,0.09702406,inf,inf,inf,inf,1,1,1,1,2,2,2,2,3,1,1,1,0,0,0
310463091,310462008,20746427,41.1790421,-8.6036193,-1.3125882,0.45396233,-2.8622396,0.00044288504,-0.00038057796,1.0818243e-05,-0.05941405,0.037964206,-0.11841262,-0.07857533,-0.005952366,-0.0004691705,0.0036611534,1.02867,0.026174132,1.5359553,-1.816169,-0.21791902,115.71866,4.5870614,0.31491512,0.28860196,0.14148767,0.098736055,inf,inf,inf,inf,1,1,1,1,2,2,2,2,3,1,1,1,0,0,0
310563042,310561962,20746427,41.1790421,-8.6036193,-1.3231764,0.45865032,-2.871689,0.00044288504,-0.00038057796,1.0818243e-05,-0.056941345,0.07223488,-0.10146495,-0.06475278,-0.005952366,-0.0004691705,0.0036611534,1.010605,1.7854656,1.5578862,-1.8174839,-0.21791902,115.71866,4.596511,0.32384923,0.2934853,0.14622255,0.10043479,inf,inf,inf,inf,1,1,1,1,2,2,2,2,3,1,1,1,0,0,0
310662925,310661917,20746427,41.1790421,-8.6036193,-1.3331621,0.4670567,-2.8768249,0.00044288504,-0.00038057796,1.0818243e-05,-0.03867457,0.08659249,-0.102667324,-0.06525823,-0.005952366,-0.0004691705,0.0036611534,-0.86926633,2.662451,-3.414999,-1.8180295,-0.21791902,115.71866,4.6016464,0.31429085,0.2882953,0.14096738,0.09867883,inf,inf,inf,inf,1,1,1,1,2,2,2,2,3,1,1,1,0,0,0
310763638,310761872,20746427,41.1790421,-8.6036193,-1.3423308,0.47619745,-2.8839111,0.00044288504,-0.00038057796,1.0818243e-05,-0.068508245,0.09495598,-0.086048804,-0.05020068,-0.005952366,-0.0004691705,0.0036611534,-4.1360908,1.4027475,-1.4668534,-1.8180248,-0.21791902,115.71866,4.608733,0.30546162,0.2832631,0.13600382,0.09693444,inf,inf,inf,inf,1,1,1,1,2,2,2,2,3,1,1,1,0,0,0
310862833,310861828,20746427,41.1790421,-8.6036193,-1.357501,0.48204616,-2.8865283,0.00044288504,-0.00038057796,1.0818243e-05,-0.107388705,0.051554125,-0.10677302,-0.06872733,-0.005952366,-0.0004691705,0.0036611534,-0.82076806,1.6462774,0.060955822,-1.8167391,-0.21791902,115.71866,4.61135,0.31380093,0.2880477,0.14053316,0.09864999,inf,inf,inf,inf,1,1,1,1,2,2,2,2,3,1,1,1,0,0,0
310963542,310961782,20746427,41.1790421,-8.6036193,-1.3760697,0.4846226,-2.8919394,0.00044288504,-0.00038057796,1.0818243e-05,-0.16970651,0.014897096,-0.10389883,-0.06604714,-0.005952366,-0.0004691705,0.0036611534,-0.05090212,1.1287118,-0.2373205,-1.8133819,-0.21791902,115.71866,4.616761,0.3050401,0.2830309,0.13566151,0.09690691,inf,inf,inf,inf,1,1,1,1,2,2,2,2,3,1,1,1,0,0,0
311062832,311061737,20746427,41.1790421,-8.6036193,-1.4018811,0.4808754,-2.8944232,0.00044288504,-0.00038057796,1.0818243e-05,-0.24982454,-0.067079365,-0.102878876,-0.061396588,-0.005952366,-0.0004691705,0.0036611534,-0.07450285,1.4428818,-2.6274493,-1.8105718,-0.21791902,115.71866,4.619245,0.31335628,0.2878106,0.14021376,0.09861111,inf,inf,inf,inf,1,1,1,1,2,2,2,2,3,1,1,1,0,0,0
311163415,311161692,20746427,41.1790421,-8.6036193,-1.433859,0.46884745,-2.8997111,0.00044288504,-0.00038057796,1.0818243e-05,-0.31941313,-0.17083472,-0.09323971,-0.05091846,-0.005952366,-0.0004691705,0.0036611534,-1.9670994,-0.4696926,-0.67873716,-1.8087455,-0.21791902,115.71866,4.6245327,0.30468464,0.28281686,0.13537626,0.096861266,inf,inf,inf,inf,1,1,1,1,2,2,2,2,3,1,1,1,0,0,0
311262758,311261647,20746427,41.1790421,-8.6036193,-1.4717135,0.4502786,-2.900968,0.00044288504,-0.00038057796,1.0818243e-05,-0.3594203,-0.2235086,-0.10754058,-0.060639422,-0.005952366,-0.0004691705,0.0036611534,-1.0264964,-1.709262,0.4327753,-1.8040962,-0.21791902,115.71866,4.6257896,0.3129819,0.28759933,0.13996196,0.09855722,inf,inf,inf,inf,1,1,1,1,2,2,2,2,3,1,1,1,0,0,0
311373303,311371599,20746427,41.1790421,-8.6036193,-1.5132768,0.42621034,-2.9041219,0.00044288504,-0.00038057796,1.0818243e-05,-0.33246073,-0.21626495,-0.090021916,-0.0410856,-0.005952366,-0.0004691705,0.0036611534,1.1747911,0.367159,0.53430074,-1.7936617,-0.21791902,115.71866,4.6289434,0.30509812,0.28324702,0.13563414,0.09699379,inf,inf,inf,inf,1,1,1,1,2,2,2,2,3,1,1,1,0,0,0
311462710,311461557,20746427,41.1790421,-8.6036193,-1.5421611,0.41030467,-2.9051507,0.00044288504,-0.00038057796,1.0818243e-05,-0.3061226,-0.19846179,-0.083326355,-0.0322604,-0.005952366,-0.0004691705,0.0036611534,-0.15596266,-3.883143,-1.7701899,-1.7833211,-0.21791902,115.71866,4.6299725,0.3125661,0.2873743,0.13963488,0.09849648,inf,inf,inf,inf,1,1,1,1,2,2,2,2,3,1,1,1,0,0,0
311563427,311561512,20746427,41.1790421,-8.6036193,-1.5698985,0.39720148,-2.9064045,0.00044288504,-0.00038057796,1.0818243e-05,-0.2633107,-0.11204897,-0.052297764,-0.0009944293,-0.005952366,-0.0004691705,0.0036611534,-1.2327797,4.163843,-2.1942327,-1.7781531,-0.21791902,115.71866,4.6312265,0.304005,0.28241247,0.1348966,0.0967633,inf,inf,inf,inf,1,1,1,1,2,2,2,2,3,1,1,1,0,0,0
311662691,311661467,20746427,41.1790421,-8.6036193,-1.5923697,0.391828,-2.906458,0.00044288504,-0.00038057796,1.0818243e-05,-0.2195033,-0.044842605,-0.053682327,-0.0019699002,-0.005952366,-0.0004691705,0.0036611534,2.4085207,2.1719687,1.5958179,-1.7780722,-0.21791902,115.71866,4.63128,0.31226516,0.28719974,0.13934661,0.09846554,inf,inf,inf,inf,1,1,1,1,2,2,2,2,3,1,1,1,0,0,0
311763385,311761422,20746427,41.1790421,-8.6036193,-1.6110533,0.39200053,-2.9077737,0.00044288504,-0.00038057796,1.0818243e-05,-0.17424919,0.00876854,-0.055261724,-0.0046437574,-0.005952366,-0.0004691705,0.0036611534,0.95220757,-1.0369049,2.3624988,-1.7796862,-0.21791902,115.71866,4.6325955,0.30374396,0.2822451,0.13467945,0.096732,inf,inf,inf,inf,1,1,1,1,2,2,2,2,3,1,1,1,0,0,0
311862569,311861377,20746427,41.1790421,-8.6036193,-1.6332313,0.39008492,-2.9088304,0.00044288504,-0.00038057796,1.0818243e-05,-0.15570149,0.06714746,-0.07074365,-0.020157527,-0.005952366,-0.0004691705,0.0036611534,-3.6477818,-2.4504972,1.1438279,-1.7810684,-0.21791902,115.71866,4.633652,0.31199554,0.28703555,0.1393016,0.098436,inf,inf,inf,inf,1,1,1,1,2,2,2,2,3,1,1,1,0,0,0
311973027,311971327,20746427,41.1790421,-8.6036193,-1.6517537,0.3939357,-2.9140174,0.00044288504,-0.00038057796,1.0818243e-05,-0.1030305,0.11403952,-0.08380976,-0.036011424,-0.005952366,-0.0004691705,0.0036611534,-0.6766215,0.58106774,-0.33266008,-1.7822542,-0.21791902,115.71866,4.6388392,0.30424097,0.28270826,0.13509427,0.09688439,inf,inf,inf,inf,1,1,1,1,2,2,2,2,3,1,1,1,0,0,0
312072243,312071282,20746427,41.1790421,-8.6036193,-1.6678529,0.39910388,-2.9138725,0.00044288504,-0.00038057796,1.0818243e-05,-0.079112485,0.12482567,-0.009474853,0.03800179,-0.005952366,-0.0004691705,0.0036611534,0.20718734,1.543484,-0.5774485,-1.7857895,-0.21791902,115.71866,4.6386943,0.31253186,0.2875204,0.13984454,0.09859145,inf,inf,inf,inf,1,1,1,1,2,2,2,2,3,1,1,1,0,0,0
312163066,312161242,20746427,41.1790421,-8.6036193,-1.6792489,0.40623847,-2.9074948,0.00044288504,-0.00038057796,1.0818243e-05,-0.060283344,0.14864376,0.07045771,0.116388045,-0.005952366,-0.0004691705,0.0036611534,-1.4370811,-0.7396117,-0.1733961,-1.7882854,-0.21791902,115.71866,4.6323166,0.30323806,0.28189477,0.13456462,0.0966625,inf,inf,inf,inf,1,1,1,1,2,2,2,2,3,1,1,1,0,0,0
312272147,312271192,20746427,41.1790421,-8.6036193,-1.6963168,0.4153923,-2.894475,0.00044288504,-0.00038057796,1.0818243e-05,-0.0762891,0.12851903,0.07324626,0.11919579,-0.005952366,-0.0004691705,0.0036611534,-3.665102,-0.56204486,1.7031529,-1.7889682,-0.21791902,115.71866,4.619297,0.31231728,0.28736657,0.13941419,0.09856826,inf,inf,inf,inf,1,1,1,1,2,2,2,2,3,1,1,1,0,0,0
312362216,312361151,20746427,41.1790421,-8.6036193,-1.7076045,0.4239232,-2.8850636,0.00044288504,-0.00038057796,1.0818243e-05,-0.040818177,0.1291798,0.077140145,0.12058969,-0.005952366,-0.0004691705,0.0036611534,-0.7266528,-1.498328,-1.9790298,-1.7918212,-0.21791902,115.71866,4.609885,0.32020897,0.2915902,0.14365868,0.10005722,inf,inf,inf,inf,1,1,1,1,2,2,2,2,3,1,1,1,0,0,0
312462158,312461106,20746427,41.1790421,-8.6036193,-1.7211143,0.43431312,-2.8746645,0.00044288504,-0.00038057796,1.0818243e-05,-0.053716447,0.12960874,0.08813433,0.12966712,-0.005952366,-0.0004691705,0.0036611534,0.012064381,-0.9029365,1.513503,-1.7950972,-0.21791902,115.71866,4.5994864,0.3111989,0.286508,0.13888894,0.098319,inf,inf,inf,inf,1,1,1,1,2,2,2,2,3,1,1,1,0,0,0
312562125,312561061,20746427,41.1790421,-8.6036193,-1.7317755,0.44525906,-2.8680453,0.00044288504,-0.00038057796,1.0818243e-05,-0.04405411,0.12461819,0.05997967,0.097313344,-0.005952366,-0.0004691705,0.0036611534,-0.5766255,-2.6904743,-0.26833582,-1.7957631,-0.21791902,115.71866,4.592867,0.31993356,0.2914095,0.14355066,0.100008026,inf,inf,inf,inf,1,1,1,1,2,2,2,2,3,1,1,1,0,0,0
312662017,312661016,20746427,41.1790421,-8.6036193,-1.744285,0.45577386,-2.8557997,0.00044288504,-0.00038057796,1.0818243e-05,-0.033441693,0.09943586,0.139041,0.17596918,-0.005952366,-0.0004691705,0.0036611534,3.9348729,-1.4177803,1.9653804,-1.7967032,-0.21791902,115.71866,4.5806217,0.31096068,0.2863351,0.13895753,0.098272555,inf,inf,inf,inf,1,1,1,1,2,2,2,2,3,1,1,1,0,0,0
312762761,312760970,20746427,41.1790421,-8.6036193,-1.7538762,0.4673446,-2.8349829,0.00044288504,-0.00038057796,1.0818243e-05,-0.030258326,0.111327134,0.2363261,0.27094978,-0.005952366,-0.0004691705,0.0036611534,-1.8228267,-0.5855712,-0.45426032,-1.7976686,-0.21791902,115.71866,4.559805,0.30261403,0.28139767,0.13416618,0.09654407,inf,inf,inf,inf,1,1,1,1,2,2,2,2,3,1,1,1,0,0,0
312861901,312860925,20746427,41.1790421,-8.6036193,-1.7630497,0.48326975,-2.8104832,0.00044288504,-0.00038057796,1.0818243e-05,-0.026954703,0.10610373,0.20577051,0.23821728,-0.005952366,-0.0004691705,0.0036611534,-3.9153092,-3.6205463,-2.1635363,-1.7964015,-0.21791902,115.71866,4.535305,0.31082097,0.28619015,0.13848196,0.09824407,inf,inf,inf,inf,1,1,1,1,2,2,2,2,3,1,1,1,0,0,0
312972585,312970875,20746427,41.1790421,-8.6036193,-1.7702342,0.49741176,-2.7885718,0.00044288504,-0.00038057796,1.0818243e-05,-0.00091189484,0.09022051,0.20305048,0.23136741,-0.005952366,-0.0004691705,0.0036611534,-0.7133078,2.741008,-2.6547134,-1.790912,-0.21791902,115.71866,4.5133934,0.30321383,0.28187755,0.1344653,0.09669349,inf,inf,inf,inf,1,1,1,1,2,2,2,2,3,1,1,1,0,0,0
313061896,313060835,20746427,41.1790421,-8.6036193,-1.7795191,0.50680196,-2.7704823,0.00044288504,-0.00038057796,1.0818243e-05,0.013856558,0.07554233,0.17323682,0.19984315,-0.005952366,-0.0004691705,0.0036611534,1.7243322,0.8839974,-1.9481369,-1.7854759,-0.21791902,115.71866,4.495304,0.31062064,0.28601515,0.13868307,0.09819134,inf,inf,inf,inf,1,1,1,1,2,2,2,2,3,1,1,1,0,0,0
313172492,313170785,20746427,41.1790421,-8.6036193,-1.7873188,0.51565474,-2.749704,0.00044288504,-0.00038057796,1.0818243e-05,0.026787948,0.045632344,0.22316167,0.24601556,-0.005952366,-0.0004691705,0.0036611534,2.8270683,0.32171923,2.4238513,-1.7815546,-0.21791902,115.71866,4.4745255,0.30301234,0.28170946,0.13466413,0.09664353,inf,inf,inf,inf,1,1,1,1,2,2,2,2,3,1,1,1,0,0,0
313261814,313260744,20746427,41.1790421,-8.6036193,-1.7926568,0.52276236,-2.728872,0.00044288504,-0.00038057796,1.0818243e-05,0.01459912,0.010641096,0.23892455,0.26110533,-0.005952366,-0.0004691705,0.0036611534,3.0983827,-1.2136014,2.3920028,-1.7817742,-0.21791902,115.71866,4.453694,0.31041965,0.28584805,0.13876383,0.09814062,inf,inf,inf,inf,1,1,1,1,2,2,2,2,3,1,1,1,0,0,0
313361890,313360699,20746427,41.1790421,-8.6036193,-1.7964423,0.526898,-2.702715,0.00044288504,-0.00038057796,1.0818243e-05,0.015742103,-0.007919158,0.31001195,0.3289708,-0.005952366,-0.0004691705,0.0036611534,-2.9741282,-1.1059805,-1.724589,-1.7820299,-0.21791902,115.71866,4.427537,0.31914315,0.29074574,0.1434278,0.09982175,inf,inf,inf,inf,1,1,1,1,2,2,2,2,3,1,1,1,0,0,0
313471789,313470649,20746427,41.1790421,-8.6036193,-1.7984203,0.53156817,-2.6657317,0.00044288504,-0.00038057796,1.0818243e-05,0.04672725,-0.018866112,0.34346417,0.36022532,-0.005952366,-0.0004691705,0.0036611534,-1.1685499,-1.8959501,0.31369743,-1.7797362,-0.21791902,115.71866,4.3905535,0.31109178,0.2863536,0.13895625,0.09829003,inf,inf,inf,inf,1,1,1,1,2,2,2,2,3,1,1,1,0,0,0
313561782,313560609,20746427,41.1790421,-8.6036193,-1.795676,0.5335582,-2.6399415,0.00044288504,-0.00038057796,1.0818243e-05,0.07599925,-0.0060427967,0.30749983,0.3195033,-0.005952366,-0.0004691705,0.0036611534,-1.1206236,2.7844656,-1.1230375,-1.7754264,-0.21791902,115.71866,4.3647633,0.31895712,0.2905767,0.1432031,0.09977155,inf,inf,inf,inf,1,1,1,1,2,2,2,2,3,1,1,1,0,0,0
313671761,313670559,20746427,41.1790421,-8.6036193,-1.7903557,0.5393426,-2.6084445,0.00044288504,-0.00038057796,1.0818243e-05,0.11548294,-0.00335044,0.30375963,0.31342793,-0.005952366,-0.0004691705,0.0036611534,-0.36951646,-2.6513827,0.31051823,-1.7717061,-0.21791902,115.71866,4.3332663,0.3109346,0.28619084,0.13930315,0.098244615,inf,inf,inf,inf,1,1,1,1,2,2,2,2,3,1,1,1,0,0,0
313762311,313760522,20746427,41.1790421,-8.6036193,-1.7832875,0.543575,-2.5841475,0.00044288504,-0.00038057796,1.0818243e-05,0.10365898,-0.0034871981,0.33876884,0.34459612,-0.005952366,-0.0004691705,0.0036611534,-2.6270823,1.1729605,1.7689399,-1.7717619,-0.21791902,115.71866,4.3089695,0.30181083,0.2806086,0.13434777,0.096330315,inf,inf,inf,inf,1,1,1,1,2,2,2,2,3,1,1,1,0,0,0
313871597,313870468,20746427,41.1790421,-8.6036193,-1.7765623,0.547703,-2.5469894,0.00044288504,-0.00038057796,1.0818243e-05,0.13416941,0.01889002,0.36605743,0.37130833,-0.005952366,-0.0004691705,0.0036611534,1.4161397,4.234283,0.8572261,-1.773272,-0.21791902,115.71866,4.2718115,0.31087783,0.28608152,0.13943163,0.098226964,inf,inf,inf,inf,1,1,1,1,2,2,2,2,3,1,1,1,0,0,0
313961738,313960428,20746427,41.1790421,-8.6036193,-1.769045,0.5495475,-2.5141995,0.00044288504,-0.00038057796,1.0818243e-05,0.10783249,-0.02097571,0.44357285,0.4459103,-0.005952366,-0.0004691705,0.0036611534,-2.9439595,0.34341243,0.27025262,-1.7778846,-0.21791902,115.71866,4.2390213,0.31876662,0.29030827,0.14369434,0.09970822,inf,inf,inf,inf,1,1,1,1,2,2,2,2,3,1,1,1,0,0,0
314061512,314060383,20746427,41.1790421,-8.6036193,-1.7662265,0.54709613,-2.4601672,0.00044288504,-0.00038057796,1.0818243e-05,0.10827162,-0.017552573,0.6469521,0.64923733,-0.005952366,-0.0004691705,0.0036611534,0.13808286,2.432656,2.8030555,-1.7850064,-0.21791902,115.71866,4.184989,0.30990356,0.28527325,0.13874245,0.09798434,inf,inf,inf,inf,1,1,1,1,2,2,2,2,3,1,1,1,0,0,0
314171440,314170332,20746427,41.1790421,-8.6036193,-1.7611489,0.5446694,-2.3808205,0.00044288504,-0.00038057796,1.0818243e-05,0.106126174,-0.031159135,0.77510726,0.7769541,-0.005952366,-0.0004691705,0.0036611534,2.7293935,0.31821683,0.7118711,-1.7881681,-0.21791902,115.71866,4.1056423,0.30246052,0.2810342,0.13406411,0.096468374,inf,inf,inf,inf,1,1,1,1,2,2,2,2,3,1,1,1,0,0,0
314261421,314260291,20746427,41.1790421,-8.6036193,-1.7584314,0.54279125,-2.3124027,0.00044288504,-0.00038057796,1.0818243e-05,0.090311065,-0.028307248,0.7736742,0.7743527,-0.005952366,-0.0004691705,0.0036611534,-1.3412783,2.8400466,-2.7247775,-1.7875736,-0.21791902,115.71866,4.037225,0.30986217,0.2851804,0.13782787,0.09796347,inf,inf,inf,inf,1,1,1,1,2,2,2,2,3,1,1,1,0,0,0
314371925,314370241,20746427,41.1790421,-8.6036193,-1.7530613,0.54023916,-2.2334187,0.00044288504,-0.00038057796,1.0818243e-05,0.09115108,-0.05271182,0.71274096,0.71128607,-0.005952366,-0.0004691705,0.0036611534,3.183642,-1.3535656,-0.7940373,-1.7840321,-0.21791902,115.71866,3.9582405,0.3023395,0.28091496,0.13395195,0.09642855,inf,inf,inf,inf,1,1,1,1,2,2,2,2,3,1,1,1,0,0,0
314461234,314460201,20746427,41.1790421,-8.6036193,-1.745082,0.540718,-2.1717966,0.00044288504,-0.00038057796,1.0818243e-05,0.082758285,-0.04724717,0.6447032,0.64358413,-0.005952366,-0.0004691705,0.0036611534,-2.5200236,-0.42083833,-0.8999783,-1.7804353,-0.21791902,115.71866,3.8966184,0.3097475,0.2850618,0.13832608,0.09792571,inf,inf,inf,inf,1,1,1,1,2,2,2,2,3,1,1,1,0,0,0
314571865,314570151,20746427,41.1790421,-8.6036193,-1.7348615,0.5404064,-2.113254,0.00044288504,-0.00038057796,1.0818243e-05,0.074416324,-0.03719089,0.443022,0.4407004,-0.005952366,-0.0004691705,0.0036611534,-5.0576196,-0.6415889,-4.3779435,-1.7740037,-0.21791902,115.71866,3.8380759,0.30222255,0.2807938,0.13471258,0.096391894,inf,inf,inf,inf,1,1,1,1,2,2,2,2,3,1,1,1,0,0,0
314661169,314660111,20746427,41.1790421,-8.6036193,-1.7301763,0.5397529,-2.0808747,0.00044288504,-0.00038057796,1.0818243e-05,0.077587314,-0.0267767,0.21667914,0.21688224,-0.005952366,-0.0004691705,0.0036611534,0.19608906,0.9563415,-4.2452435,-1.7670113,-0.21791902,115.71866,3.8056965,0.30965754,0.2849325,0.13952336,0.09788545,inf,inf,inf,inf,1,1,1,1,2,2,2,2,3,1,1,1,0,0,0
314771790,314770060,20746427,41.1790421,-8.6036193,-1.7237931,0.5378147,-2.0729597,0.00044288504,-0.00038057796,1.0818243e-05,0.073427275,-0.048900604,-0.076120175,-0.0746852,-0.005952366,-0.0004691705,0.0036611534,-2.2902284,-1.4341525,0.09961885,-1.7574912,-0.21791902,115.71866,3.7977815,0.30209064,0.28066292,0.1363841,0.09635245,inf,inf,inf,inf,1,1,1,1,2,2,2,2,3,1,1,1,0,0,0
314871094,314870015,20746427,41.1790421,-8.6036193,-1.7180898,0.53482985,-2.073268,0.00044288504,-0.00038057796,1.0818243e-05,0.07908149,-0.040951468,-0.19679606,-0.18141574,-0.005952366,-0.0004691705,0.0036611534,-3.0397527,-0.66637164,0.49039578,-1.7504032,-0.21791902,115.71866,3.7980897,0.3104403,0.2854761,0.14226241,0.09804582,inf,inf,inf,inf,1,1,1,1,2,2,2,2,3,1,1,1,0,0,0
314961114,314959974,20746427,41.1790421,-8.6036193,-1.7116876,0.531424,-2.0853462,0.00044288504,-0.00038057796,1.0818243e-05,0.09313193,-0.04093388,-0.18602529,-0.16580959,-0.005952366,-0.0004691705,0.0036611534,2.114987,2.8920789,2.2032087,-1.747242,-0.21791902,115.71866,3.810168,0.31844646,0.28969795,0.14716622,0.09952345,inf,inf,inf,inf,1,1,1,1,2,2,2,2,3,1,1,1,0,0,0
315071093,315069924,20746427,41.1790421,-8.6036193,-1.6974946,0.5302555,-2.0803387,0.00044288504,-0.00038057796,1.0818243e-05,0.124304116,-0.050642848,-0.08498833,-0.04799289,-0.005952366,-0.0004691705,0.0036611534,2.0226395,-0.73645455,1.9973912,-1.7461337,-0.21791902,115.71866,3.8051605,0.3103767,0.28535777,0.14255454,0.09801056,inf,inf,inf,inf,1,1,1,1,2,2,2,2,3,1,1,1,0,0,0
315161176,315159883,20746427,41.1790421,-8.6036193,-1.6851795,0.5274566,-2.0767944,0.00044288504,-0.00038057796,1.0818243e-05,0.12647644,-0.06819202,-0.042041484,-0.0005004562,-0.005952366,-0.0004691705,0.0036611534,-1.7580144,-3.0678194,-0.020730797,-1.7482221,-0.21791902,115.71866,3.8016162,0.31838956,0.28958014,0.14660314,0.09948733,inf,inf,inf,inf,1,1,1,1,2,2,2,2,3,1,1,1,0,0,0
315270918,315269833,20746427,41.1790421,-8.6036193,-1.6684783,0.52460366,-2.066311,0.00044288504,-0.00038057796,1.0818243e-05,0.128867,-0.06892716,0.0038191916,0.052064057,-0.005952366,-0.0004691705,0.0036611534,1.7551669,2.953903,0.73845553,-1.7506886,-0.21791902,115.71866,3.7911327,0.31032518,0.28523192,0.1419427,0.09797279,inf,inf,inf,inf,1,1,1,1,2,2,2,2,3,1,1,1,0,0,0
315360950,315359794,20746427,41.1790421,-8.6036193,-1.6543804,0.5205675,-2.0594158,0.00044288504,-0.00038057796,1.0818243e-05,0.13793358,-0.08434245,0.0716867,0.119153224,-0.005952366,-0.0004691705,0.0036611534,2.7931876,1.7376384,2.326331,-1.752851,-0.21791902,115.71866,3.7842376,0.31832984,0.2894547,0.14625487,0.09944987,inf,inf,inf,inf,1,1,1,1,2,2,2,2,3,1,1,1,0,0,0
315470887,315469742,20746427,41.1790421,-8.6036193,-1.642282,0.5147395,-2.0377653,0.00044288504,-0.00038057796,1.0818243e-05,0.14404283,-0.08880039,0.1824789,0.23115401,-0.005952366,-0.0004691705,0.0036611534,3.0376194,1.1603334,2.752572,-1.7574733,-0.21791902,115.71866,3.762587,0.31025073,0.28511822,0.14137578,0.09794128,inf,inf,inf,inf,1,1,1,1,2,2,2,2,3,1,1,1,0,0,0
315571688,315569697,20746427,41.1790421,-8.6036193,-1.6316718,0.5077886,-2.0172608,0.00044288504,-0.00038057796,1.0818243e-05,0.10457342,-0.10934239,0.18869463,0.23445643,-0.005952366,-0.0004691705,0.0036611534,-3.8626404,-1.843328,2.0105631,-1.7603451,-0.21791902,115.71866,3.7420826,0.30179378,0.28018245,0.13621038,0.096216135,inf,inf,inf,inf,1,1,1,1,2,2,2,2,3,1,1,1,0,0,0
315670724,315669651,20746427,41.1790421,-8.6036193,-1.6230346,0.5004363,-1.9982636,0.00044288504,-0.00038057796,1.0818243e-05,0.12542085,-0.11431135,0.1659173,0.20808299,-0.005952366,-0.0004691705,0.0036611534,2.6301966,-0.1128201,0.38848323,-1.7634358,-0.21791902,115.71866,3.7230854,0.31015968,0.28499645,0.14095175,0.09790764,inf,inf,inf,inf,1,1,1,1,2,2,2,2,3,1,1,1,0,0,0
315771370,315769606,20746427,41.1790421,-8.6036193,-1.6149633,0.49052757,-1.9843612,0.00044288504,-0.00038057796,1.0818243e-05,0.093009934,-0.13890083,0.15250608,0.1888142,-0.005952366,-0.0004691705,0.0036611534,-2.7619734,0.49644586,0.1671117,-1.7662817,-0.21791902,115.71866,3.709183,0.30167842,0.28006268,0.13624197,0.09618696,inf,inf,inf,inf,1,1,1,1,2,2,2,2,3,1,1,1,0,0,0
315860707,315859565,20746427,41.1790421,-8.6036193,-1.6093159,0.48067066,-1.970299,0.00044288504,-0.00038057796,1.0818243e-05,0.0979126,-0.15203035,0.10002831,0.13494185,-0.005952366,-0.0004691705,0.0036611534,1.3544384,1.4692271,-1.1456552,-1.767044,-0.21791902,115.71866,3.6951208,0.30919096,0.28420395,0.1406087,0.09768091,inf,inf,inf,inf,1,1,1,1,2,2,2,2,3,1,1,1,0,0,0
315971239,315969515,20746427,41.1790421,-8.6036193,-1.6028332,0.465288,-1.959566,0.00044288504,-0.00038057796,1.0818243e-05,0.066795774,-0.16845378,0.06469141,0.09689431,-0.005952366,-0.0004691705,0.0036611534,-2.6626139,0.6990804,-0.5975278,-1.7626427,-0.21791902,115.71866,3.6843877,0.3015518,0.2799354,0.13641623,0.09616085,inf,inf,inf,inf,1,1,1,1,2,2,2,2,3,1,1,1,0,0,0
316060441,316059474,20746427,41.1790421,-8.6036193,-1.5968663,0.45221472,-1.9499539,0.00044288504,-0.00038057796,1.0818243e-05,0.084947035,-0.18211658,0.023072772,0.05836287,-0.005952366,-0.0004691705,0.0036611534,3.6468687,0.19408041,-0.16547966,-1.7560108,-0.21791902,115.71866,3.6747756,0.30907506,0.2840773,0.14088213,0.097655885,inf,inf,inf,inf,1,1,1,1,2,2,2,2,3,1,1,1,0,0,0
316171139,316169424,20746427,41.1790421,-8.6036193,-1.5886362,0.4341745,-1.9405016,0.00044288504,-0.00038057796,1.0818243e-05,0.07885671,-0.18546882,0.056084104,0.09238573,-0.005952366,-0.0004691705,0.0036611534,1.0544152,0.51673365,1.1035869,-1.7520312,-0.21791902,115.71866,3.6653233,0.30142096,0.27979177,0.13663441,0.096134156,inf,inf,inf,inf,1,1,1,1,2,2,2,2,3,1,1,1,0,0,0
316270441,316269378,20746427,41.1790421,-8.6036193,-1.5818045,0.41604766,-1.9271818,0.00044288504,-0.00038057796,1.0818243e-05,0.06505204,-0.23066086,0.07734117,0.11694066,-0.005952366,-0.0004691705,0.0036611534,3.9178882,2.212687,2.0150368,-1.7541906,-0.21791902,115.71866,3.6520038,0.30981663,0.28460705,0.14125654,0.09783028,inf,inf,inf,inf,1,1,1,1,2,2,2,2,3,1,1,1,0,0,0
316370537,316369338,20746427,41.1790421,-8.6036193,-1.5781521,0.39120254,-1.9181641,0.00044288504,-0.00038057796,1.0818243e-05,0.0049299626,-0.31046498,0.06146688,0.100354716,-0.005952366,-0.0004691705,0.0036611534,-3.4266574,-2.4502406,0.9505326,-1.7606785,-0.21791902,115.71866,3.6429858,0.30136397,0.27966875,0.13642338,0.096128464,inf,inf,inf,inf,1,1,1,1,2,2,2,2,3,1,1,1,0,0,0
316470325,316469287,20746427,41.1790421,-8.6036193,-1.5782193,0.35797164,-1.9062569,0.00044288504,-0.00038057796,1.0818243e-05,-0.023332942,-0.3489922,0.06203977,0.10241129,-0.005952366,-0.0004691705,0.0036611534,-4.214375,-0.8741884,1.3090391,-1.7672703,-0.21791902,115.71866,3.6310787,0.3097699,0.2844818,0.14130172,0.097814344,inf,inf,inf,inf,1,1,1,1,2,2,2,2,3,1,1,1,0,0,0
316570935,316569242,20746427,41.1790421,-8.6036193,-1.5790037,0.32227254,-1.8964851,0.00044288504,-0.00038057796,1.0818243e-05,-0.025626155,-0.36360964,0.08985257,0.12803397,-0.005952366,-0.0004691705,0.0036611534,-2.6624906,0.13435286,0.76343465,-1.769593,-0.21791902,115.71866,3.621307,0.30119535,0.27949256,0.1364514,0.09607937,inf,inf,inf,inf,1,1,1,1,2,2,2,2,3,1,1,1,0,0,0
316670206,316669196,20746427,41.1790421,-8.6036193,-1.5783961,0.29148826,-1.8830334,0.00044288504,-0.00038057796,1.0818243e-05,-0.0010303127,-0.31301865,0.11359868,0.15066358,-0.005952366,-0.0004691705,0.0036611534,2.3821776,1.9183302,1.5891312,-1.7689316,-0.21791902,115.71866,3.6078553,0.30959964,0.28430095,0.1410882,0.097771876,inf,inf,inf,inf,1,1,1,1,2,2,2,2,3,1,1,1,0,0,0
316761107,316759155,20746427,41.1790421,-8.6036193,-1.5778726,0.2680578,-1.8741447,0.00044288504,-0.00038057796,1.0818243e-05,-0.012796255,-0.25916138,0.12234203,0.15524293,-0.005952366,-0.0004691705,0.0036611534,-2.9658802,0.501404,0.80957067,-1.7688857,-0.21791902,115.71866,3.5989666,0.30028048,0.27869275,0.13576455,0.09586848,inf,inf,inf,inf,1,1,1,1,2,2,2,2,3,1,1,1,0,0,0
316870103,316869105,20746427,41.1790421,-8.6036193,-1.5738505,0.24802335,-1.8622667,0.00044288504,-0.00038057796,1.0818243e-05,-0.0027517555,-0.17154644,0.12642434,0.15474392,-0.005952366,-0.0004691705,0.0036611534,0.027311267,-3.2538223,-0.2617577,-1.7677107,-0.21791902,115.71866,3.5870886,0.30950207,0.28415537,0.1408415,0.0977514,inf,inf,inf,inf,1,1,1,1,2,2,2,2,3,1,1,1,0,0,0
316970105,316969060,20746427,41.1790421,-8.6036193,-1.5727926,0.23543614,-1.8526946,0.00044288504,-0.00038057796,1.0818243e-05,-0.032202397,-0.09070543,0.1375106,0.15995783,-0.005952366,-0.0004691705,0.0036611534,0.30924693,3.292856,-0.60291505,-1.7691252,-0.21791902,115.71866,3.5775166,0.3009585,0.279194,0.13601257,0.09604378,inf,inf,inf,inf,1,1,1,1,2,2,2,2,3,1,1,1,0,0,0
317070092,317069014,20746427,41.1790421,-8.6036193,-1.5793698,0.22327775,-1.8393433,0.00044288504,-0.00038057796,1.0818243e-05,-0.09567593,-0.04724623,0.18114354,0.19910496,-0.005952366,-0.0004691705,0.0036611534,0.47144502,1.4191881,0.8630738,-1.7766117,-0.21791902,115.71866,3.564165,0.30937338,0.28400618,0.14068972,0.09773096,inf,inf,inf,inf,1,1,1,1,2,2,2,2,3,1,1,1,0,0,0
317170816,317168968,20746427,41.1790421,-8.6036193,-1.5940332,0.21584506,-1.8246481,0.00044288504,-0.00038057796,1.0818243e-05,-0.1750412,-0.008748412,0.17334282,0.18659867,-0.005952366,-0.0004691705,0.0036611534,-1.2665654,0.595983,-0.7817491,-1.7902169,-0.21791902,115.71866,3.54947,0.30074802,0.27901393,0.13572162,0.096004285,inf,inf,inf,inf,1,1,1,1,2,2,2,2,3,1,1,1,0,0,0
317269979,317268925,20746427,41.1790421,-8.6036193,-1.6183146,0.20813198,-1.8102009,0.00044288504,-0.00038057796,1.0818243e-05,-0.2342903,-1.13727e-05,0.1587519,0.16916932,-0.005952366,-0.0004691705,0.0036611534,0.519355,-1.4404676,1.7085263,-1.8030633,-0.21791902,115.71866,3.5350227,0.30915368,0.28382593,0.14051801,0.09769359,inf,inf,inf,inf,1,1,1,1,2,2,2,2,3,1,1,1,0,0,0
317370713,317368877,20746427,41.1790421,-8.6036193,-1.6423832,0.20238476,-1.7997568,0.00044288504,-0.00038057796,1.0818243e-05,-0.23380531,0.0056169387,0.14063,0.14739299,-0.005952366,-0.0004691705,0.0036611534,-2.7166743,-1.863244,1.3725538,-1.8073143,-0.21791902,115.71866,3.5245786,0.30045012,0.27882132,0.1357662,0.09596776,inf,inf,inf,inf,1,1,1,1,2,2,2,2,3,1,1,1,0,0,0
317460064,317458836,20746427,41.1790421,-8.6036193,-1.6567388,0.1938172,-1.7884842,0.00044288504,-0.00038057796,1.0818243e-05,-0.17728339,-0.0077346065,0.123773165,0.13045,-0.005952366,-0.0004691705,0.0036611534,-0.79604125,0.96325976,0.035394583,-1.8079511,-0.21791902,115.71866,3.5133061,0.30799243,0.28296238,0.14009678,0.09745561,inf,inf,inf,inf,1,1,1,1,2,2,2,2,3,1,1,1,0,0,0
317570518,317568785,20746427,41.1790421,-8.6036193,-1.6713271,0.18507548,-1.7781874,0.00044288504,-0.00038057796,1.0818243e-05,-0.1403355,-0.0016762797,0.08011634,0.08551427,-0.005952366,-0.0004691705,0.0036611534,0.17761812,2.0394573,-1.08344,-1.8096821,-0.21791902,115.71866,3.5030093,0.30018717,0.27863774,0.13569318,0.09592438,inf,inf,inf,inf,1,1,1,1,2,2,2,2,3,1,1,1,0,0,0
317659878,317658744,20746427,41.1790421,-8.6036193,-1.6842668,0.17729348,-1.7670945,0.00044288504,-0.00038057796,1.0818243e-05,-0.123109,0.009608857,0.09546819,0.1028125,-0.005952366,-0.0004691705,0.0036611534,0.7886711,1.944603,-3.2620378,-1.8084738,-0.21791902,115.71866,3.4919162,0.30773115,0.28277978,0.1399943,0.09741212,inf,inf,inf,inf,1,1,1,1,2,2,2,2,3,1,1,1,0,0,0
317770636,317768695,20746427,41.1790421,-8.6036193,-1.6983081,0.17096086,-1.7537364,0.00044288504,-0.00038057796,1.0818243e-05,-0.08782356,0.01621543,0.11988252,0.12818496,-0.005952366,-0.0004691705,0.0036611534,3.9817643,0.6547632,-0.15276985,-1.8032278,-0.21791902,115.71866,3.478558,0.29993168,0.2784724,0.13557312,0.09588816,inf,inf,inf,inf,1,1,1,1,2,2,2,2,3,1,1,1,0,0,0
317869735,317868648,20746427,41.1790421,-8.6036193,-1.713353,0.16777131,-1.7375848,0.00044288504,-0.00038057796,1.0818243e-05,-0.09488639,0.024252305,0.12654082,0.13853423,-0.005952366,-0.0004691705,0.0036611534,1.0350218,-0.63358325,1.3225064,-1.8011854,-0.21791902,115.71866,3.4624066,0.3083367,0.2832864,0.14011556,0.09757749,inf,inf,inf,inf,1,1,1,1,2,2,2,2,3,1,1,1,0,0,0
317969693,317968603,20746427,41.1790421,-8.6036193,-1.7270801,0.16635403,-1.7222632,0.00044288504,-0.00038057796,1.0818243e-05,-0.08344813,0.025182279,0.16688417,0.17891799,-0.005952366,-0.0004691705,0.0036611534,3.1682875,0.5267608,1.7292054,-1.8012943,-0.21791902,115.71866,3.447085,0.317277,0.28820387,0.14484072,0.09925154,inf,inf,inf,inf,1,1,1,1,2,2,2,2,3,1,1,1,0,0,0
318069844,318068557,20746427,41.1790421,-8.6036193,-1.742456,0.16511364,-1.7032987,0.00044288504,-0.00038057796,1.0818243e-05,-0.0910311,0.013846678,0.15438859,0.16913414,-0.005952366,-0.0004691705,0.0036611534,3.534742,-1.2787223,1.6555037,-1.8025501,-0.21791902,115.71866,3.4281206,0.30800286,0.2830917,0.13969888,0.097527556,inf,inf,inf,inf,1,1,1,1,2,2,2,2,3,1,1,1,0,0,0
318170289,318168511,20746427,41.1790421,-8.6036193,-1.7555909,0.16601929,-1.6874118,0.00044288504,-0.00038057796,1.0818243e-05,-0.055927742,0.03507421,0.113741964,0.12933987,-0.005952366,-0.0004691705,0.0036611534,3.0592344,-0.48097336,0.010633844,-1.8006856,-0.21791902,115.71866,3.4122336,0.2993939,0.27812788,0.1349815,0.09581456,inf,inf,inf,inf,1,1,1,1,2,2,2,2,3,1,1,1,0,0,0
318269771,318268470,20746427,41.1790421,-8.6036193,-1.7703952,0.16950227,-1.673351,0.00044288504,-0.00038057796,1.0818243e-05,-0.06889237,0.046905924,0.107047565,0.12383659,-0.005952366,-0.0004691705,0.0036611534,-3.5313525,-2.2580447,0.6269195,-1.7995476,-0.21791902,115.71866,3.3981729,0.30778447,0.28293842,0.13979462,0.097504176,inf,inf,inf,inf,1,1,1,1,2,2,2,2,3,1,1,1,0,0,0
318370376,318368420,20746427,41.1790421,-8.6036193,-1.7813374,0.174609,-1.6618305,0.00044288504,-0.00038057796,1.0818243e-05,-0.050044082,0.070854396,0.14653604,0.161122,-0.005952366,-0.0004691705,0.0036611534,-1.689175,1.7528683,-0.09047745,-1.7985159,-0.21791902,115.71866,3.3866525,0.29919755,0.27799112,0.13505104,0.09579062,inf,inf,inf,inf,1,1,1,1,2,2,2,2,3,1,1,1,0,0,0
318469516,318468374,20746427,41.1790421,-8.6036193,-1.788978,0.18120667,-1.6475521,0.00044288504,-0.00038057796,1.0818243e-05,-0.0018071916,0.09619589,0.11649528,0.13119197,-0.005952366,-0.0004691705,0.0036611534,0.496452,2.8414059,-1.6332172,-1.7969364,-0.21791902,115.71866,3.372374,0.30759028,0.2827987,0.13954629,0.09747609,inf,inf,inf,inf,1,1,1,1,2,2,2,2,3,1,1,1,0,0,0
318570163,318568329,20746427,41.1790421,-8.6036193,-1.793463,0.18866456,-1.6372699,0.00044288504,-0.00038057796,1.0818243e-05,0.0019680317,0.0842063,0.11850869,0.1311913,-0.005952366,-0.0004691705,0.0036611534,2.3124075,-0.3138297,3.0393097,-1.7961202,-0.21791902,115.71866,3.3620915,0.29905146,0.27786484,0.13491991,0.095767945,inf,inf,inf,inf,1,1,1,1,2,2,2,2,3,1,1,1,0,0,0
318669509,318668283,20746427,41.1790421,-8.6036193,-1.7987676,0.19561826,-1.6246653,0.00044288504,-0.00038057796,1.0818243e-05,0.030549211,0.097610764,0.13861173,0.15128466,-0.005952366,-0.0004691705,0.0036611534,2.7137609,-1.4443973,0.73508954,-1.7958075,-0.21791902,115.71866,3.349487,0.30744642,0.28267363,0.13954483,0.09745584,inf,inf,inf,inf,1,1,1,1,2,2,2,2,3,1,1,1,0,0,0
318770134,318768237,20746427,41.1790421,-8.6036193,-1.8001281,0.20385295,-1.6133488,0.00044288504,-0.00038057796,1.0818243e-05,0.05907422,0.09147589,0.08371665,0.09491602,-0.005952366,-0.0004691705,0.0036611534,-1.3362828,-3.7273855,-3.4192784,-1.7946264,-0.21791902,115.71866,3.3381705,0.2989549,0.2777614,0.13474318,0.095751174,inf,inf,inf,inf,1,1,1,1,2,2,2,2,3,1,1,1,0,0,0
318869287,318868191,20746427,41.1790421,-8.6036193,-1.8009225,0.21061528,-1.6034517,0.00044288504,-0.00038057796,1.0818243e-05,0.05956193,0.07603772,0.07178328,0.08245994,-0.005952366,-0.0004691705,0.0036611534,-3.2118592,-0.064650685,-1.1815053,-1.7944555,-0.21791902,115.71866,3.3282735,0.30735108,0.28257152,0.13959736,0.09744003,inf,inf,inf,inf,1,1,1,1,2,2,2,2,3,1,1,1,0,0,0
318969245,318968145,20746427,41.1790421,-8.6036193,-1.7993516,0.21713667,-1.5983698,0.00044288504,-0.00038057796,1.0818243e-05,0.07861353,0.079018675,0.04406671,0.052057493,-0.005952366,-0.0004691705,0.0036611534,0.5446633,2.4389298,-0.17374231,-1.7946024,-0.21791902,115.71866,3.3231916,0.29893252,0.27770436,0.13496318,0.095758244,inf,inf,inf,inf,1,1,1,1,2,2,2,2,3,1,1,1,0,0,0
319069302,319068100,20746427,41.1790421,-8.6036193,-1.7995908,0.22444661,-1.5916896,0.00044288504,-0.00038057796,1.0818243e-05,0.09490766,0.06819242,0.06853809,0.07620887,-0.005952366,-0.0004691705,0.0036611534,3.0484324,-0.399433,1.0920935,-1.7931024,-0.21791902,115.71866,3.3165114,0.30734453,0.28251767,0.13971218,0.0974448,inf,inf,inf,inf,1,1,1,1,2,2,2,2,3,1,1,1,0,0,0
319169914,319168054,20746427,41.1790421,-8.6036193,-1.797616,0.23163256,-1.5852264,0.00044288504,-0.00038057796,1.0818243e-05,0.103897035,0.061362118,0.07158638,0.0780455,-0.005952366,-0.0004691705,0.0036611534,2.8652666,-1.5010897,0.36375555,-1.7919971,-0.21791902,115.71866,3.310048,0.29887885,0.27763012,0.13485742,0.09574406,inf,inf,inf,inf,1,1,1,1,2,2,2,2,3,1,1,1,0,0,0
319269325,319268008,20746427,41.1790421,-8.6036193,-1.7953732,0.24032252,-1.5772824,0.00044288504,-0.00038057796,1.0818243e-05,0.0830382,0.06689115,0.07414831,0.08054186,-0.005952366,-0.0004691705,0.0036611534,-1.7112943,-2.9988768,-0.60553277,-1.7934995,-0.21791902,115.71866,3.3021042,0.30729112,0.2824446,0.13947256,0.0974327,inf,inf,inf,inf,1,1,1,1,2,2,2,2,3,1,1,1,0,0,0
319369812,319367962,20746427,41.1790421,-8.6036193,-1.7918189,0.24906051,-1.5701813,0.00044288504,-0.00038057796,1.0818243e-05,0.07596887,0.06661733,0.10187354,0.106233306,-0.005952366,-0.0004691705,0.0036611534,-1.8109746,-1.8928994,0.5733651,-1.7951449,-0.21791902,115.71866,3.295003,0.29883078,0.2775641,0.13471726,0.09572956,inf,inf,inf,inf,1,1,1,1,2,2,2,2,3,1,1,1,0,0,0
319469046,319467916,20746427,41.1790421,-8.6036193,-1.7877702,0.25831515,-1.5593333,0.00044288504,-0.00038057796,1.0818243e-05,0.07858013,0.062281225,0.12582637,0.13036421,-0.005952366,-0.0004691705,0.0036611534,-1.5470277,0.22248583,-2.3660088,-1.7976259,-0.21791902,115.71866,3.2841551,0.3072416,0.28237972,0.13922375,0.097415075,inf,inf,inf,inf,1,1,1,1,2,2,2,2,3,1,1,1,0,0,0
319569742,319567871,20746427,41.1790421,-8.6036193,-1.7820358,0.2663219,-1.5474787,0.00044288504,-0.00038057796,1.0818243e-05,0.0894662,0.060611427,0.12909593,0.13293238,-0.005952366,-0.0004691705,0.0036611534,-1.0947882,1.8639402,-2.7393198,-1.7999598,-0.21791902,115.71866,3.2723005,0.2988179,0.27751505,0.13442823,0.09571623,inf,inf,inf,inf,1,1,1,1,2,2,2,2,3,1,1,1,0,0,0
319668999,319667825,20746427,41.1790421,-8.6036193,-1.7759545,0.27431768,-1.5364177,0.00044288504,-0.00038057796,1.0818243e-05,0.07060953,0.04508596,0.11619016,0.11845384,-0.005952366,-0.0004691705,0.0036611534,-1.7200902,2.3687823,-0.59607565,-1.8029869,-0.21791902,115.71866,3.2612395,0.30722508,0.28233176,0.1390252,0.09740199,inf,inf,inf,inf,1,1,1,1,2,2,2,2,3,1,1,1,0,0,0
319769737,319767779,20746427,41.1790421,-8.6036193,-1.7702945,0.2795368,-1.5268209,0.00044288504,-0.00038057796,1.0818243e-05,0.069919415,0.016301304,0.11883229,0.11841053,-0.005952366,-0.0004691705,0.0036611534,1.0755066,2.219896,-2.5855515,-1.8030037,-0.21791902,115.71866,3.2516427,0.29879838,0.2774718,0.1343708,0.095702395,inf,inf,inf,inf,1,1,1,1,2,2,2,2,3,1,1,1,0,0,0
319868922,319867733,20746427,41.1790421,-8.6036193,-1.7649741,0.28196314,-1.5160592,0.00044288504,-0.00038057796,1.0818243e-05,0.062257458,0.0094352495,0.13002679,0.12896065,-0.005952366,-0.0004691705,0.0036611534,-0.027286137,3.3007767,-1.1258063,-1.8013706,-0.21791902,115.71866,3.240881,0.3072052,0.2822895,0.13895652,0.0973904,inf,inf,inf,inf,1,1,1,1,2,2,2,2,3,1,1,1,0,0,0
319969473,319967687,20746427,41.1790421,-8.6036193,-1.7602166,0.2822285,-1.5070548,0.00044288504,-0.00038057796,1.0818243e-05,0.04885969,-0.011752075,0.11315468,0.109915525,-0.005952366,-0.0004691705,0.0036611534,-2.3327253,2.976709,-2.8101122,-1.7995723,-0.21791902,115.71866,3.2318766,0.29875985,0.2774335,0.13422547,0.09569361,inf,inf,inf,inf,1,1,1,1,2,2,2,2,3,1,1,1,0,0,0
320068810,320067641,20746427,41.1790421,-8.6036193,-1.7556816,0.28202546,-1.4973845,0.00044288504,-0.00038057796,1.0818243e-05,0.03461731,-0.03426122,0.1005514,0.09610263,-0.005952366,-0.0004691705,0.0036611534,-0.082986005,2.560258,-2.9427261,-1.7985414,-0.21791902,115.71866,3.2222064,0.307167,0.2822522,0.13888606,0.097381234,inf,inf,inf,inf,1,1,1,1,2,2,2,2,3,1,1,1,0,0,0
320169379,320167595,20746427,41.1790421,-8.6036193,-1.7532848,0.28018373,-1.487136,0.00044288504,-0.00038057796,1.0818243e-05,-0.010895371,-0.043384682,0.1360482,0.13034867,-0.005952366,-0.0004691705,0.0036611534,1.3116535,-0.37148646,2.5249147,-1.794532,-0.21791902,115.71866,3.211958,0.29869664,0.2782581,0.13424195,0.09582451,inf,inf,inf,inf,1,1,1,1,2,2,2,2,3,1,1,1,0,0,0
320268586,320267549,20746427,41.1790421,-8.6036193,-1.7542108,0.28008196,-1.4727913,0.00044288504,-0.00038057796,1.0818243e-05,-0.06812481,-0.033754285,0.14521158,0.14073749,-0.005952366,-0.0004691705,0.0036611534,1.0747336,-1.7047417,-0.92124635,-1.7899973,-0.21791902,115.71866,3.1976132,0.3071009,0.2831153,0.13870081,0.0975179,inf,inf,inf,inf,1,1,1,1,2,2,2,2,3,1,1,1,0,0,0
320369286,320367503,20746427,41.1790421,-8.6036193,-1.7632209,0.28052977,-1.4597001,0.00044288504,-0.00038057796,1.0818243e-05,-0.16329518,-0.012537898,0.11267389,0.10850745,-0.005952366,-0.0004691705,0.0036611534,-2.3694777,1.295408,0.8824911,-1.7925857,-0.21791902,115.71866,3.184522,0.29861948,0.27819374,0.13401054,0.09580794,inf,inf,inf,inf,1,1,1,1,2,2,2,2,3,1,1,1,0,0,0
320468504,320467457,20746427,41.1790421,-8.6036193,-1.7819877,0.28317243,-1.4471434,0.00044288504,-0.00038057796,1.0818243e-05,-0.24710461,0.009493159,0.13659056,0.13196872,-0.005952366,-0.0004691705,0.0036611534,1.2206339,0.61775756,-1.5034682,-1.794156,-0.21791902,115.71866,3.1719651,0.30702004,0.28305104,0.13876037,0.09750208,inf,inf,inf,inf,1,1,1,1,2,2,2,2,3,1,1,1,0,0,0
320569124,320567411,20746427,41.1790421,-8.6036193,-1.809219,0.287751,-1.435471,0.00044288504,-0.00038057796,1.0818243e-05,-0.33644488,0.042798605,0.17956026,0.17248344,-0.005952366,-0.0004691705,0.0036611534,2.8811862,0.5334799,3.2481177,-1.7916304,-0.21791902,115.71866,3.1602929,0.29854792,0.27812594,0.13404319,0.09579301,inf,inf,inf,inf,1,1,1,1,2,2,2,2,3,1,1,1,0,0,0
320668521,320667366,20746427,41.1790421,-8.6036193,-1.8396031,0.29293782,-1.4204657,0.00044288504,-0.00038057796,1.0818243e-05,-0.42857468,0.0737317,0.18654017,0.17943425,-0.005952366,-0.0004691705,0.0036611534,3.4219992,-1.2796278,2.2522595,-1.789584,-0.21791902,115.71866,3.1452875,0.30694517,0.28298315,0.13852757,0.09749025,inf,inf,inf,inf,1,1,1,1,2,2,2,2,3,1,1,1,0,0,0
320769038,320767320,20746427,41.1790421,-8.6036193,-1.8808823,0.30044812,-1.4080421,0.00044288504,-0.00038057796,1.0818243e-05,-0.50897366,0.09535565,0.18624975,0.17721634,-0.005952366,-0.0004691705,0.0036611534,4.1100307,-0.11699616,2.5616713,-1.7926847,-0.21791902,115.71866,3.132864,0.29843864,0.278035,0.13392852,0.09577905,inf,inf,inf,inf,1,1,1,1,2,2,2,2,3,1,1,1,0,0,0
320868261,320867273,20746427,41.1790421,-8.6036193,-1.9313984,0.30655485,-1.3939074,0.00044288504,-0.00038057796,1.0818243e-05,-0.5698307,0.0981495,0.1589158,0.14929458,-0.005952366,-0.0004691705,0.0036611534,1.578271,-1.521549,2.588267,-1.7965728,-0.21791902,115.71866,3.118729,0.30683386,0.2828921,0.13860695,0.097479105,inf,inf,inf,inf,1,1,1,1,2,2,2,2,3,1,1,1,0,0,0
