timestamp,timestamp_sample,ref_timestamp,ref_lat,ref_lon,x,y,z,delta_xy[0],delta_xy[1],delta_z,vx,vy,vz,z_deriv,delta_vxy[0],delta_vxy[1],delta_vz,ax,ay,az,heading,delta_heading,ref_alt,dist_bottom,eph,epv,evh,evv,vxy_max,vz_max,hagl_min,hagl_max,xy_valid,z_valid,v_xy_valid,v_z_valid,xy_reset_counter,z_reset_counter,vxy_reset_counter,vz_reset_counter,heading_reset_counter,heading_good_for_control,xy_global,z_global,dist_bottom_valid,dist_bottom_sensor_bitfield,dead_reckoning
296462497,296461444,20740449,41.1790081,-8.6036451,0.6627399,2.0699153,-1.21242,0.00023569915,-0.0010364398,-6.15716e-05,-0.012793572,0.02486966,0.031225042,0.0686178,0.0054122694,-0.00391737,-0.021185223,0.02121129,0.0073980703,0.013861986,0.18817773,0.0086743,108.99439,0.10413623,0.33211103,0.31089753,0.13842383,0.09682896,inf,inf,inf,inf,1,1,1,1,2,2,2,2,2,0,1,1,0,0,0
296472747,296471439,20740449,41.1790081,-8.6036451,0.6622156,2.0698514,-1.2115563,0.00023569915,-0.0010364398,-6.15716e-05,-0.012921026,0.024834776,0.031315416,0.06886804,0.0054122694,-0.00391737,-0.021185223,0.013404565,0.008697434,0.009102887,0.18819536,0.0086743,108.99439,0.10359895,0.33295122,0.31155455,0.13887031,0.097011305,inf,inf,inf,inf,1,1,1,1,2,2,2,2,2,0,1,1,0,0,0
296572596,296571392,20740449,41.1790081,-8.6036451,0.65696764,2.0691793,-1.2033153,0.00023569915,-0.0010364398,-6.15716e-05,-0.013259644,0.023589417,0.031958412,0.07061214,0.0054122694,-0.00391737,-0.021185223,0.047976214,-0.060341112,-0.02554997,0.18815653,0.0086743,108.99439,0.10671878,0.32491085,0.30747995,0.13451637,0.095545195,inf,inf,inf,inf,1,1,1,1,2,2,2,2,2,0,1,1,0,0,0
296672510,296671341,20740449,41.1790081,-8.6036451,0.6515728,2.0682719,-1.1946768,0.00023569915,-0.0010364398,-6.15716e-05,-0.014849317,0.023398168,0.03303348,0.072929464,0.0054122694,-0.00391737,-0.021185223,-0.010688975,0.064058445,0.008116166,0.18824047,0.0086743,108.99439,0.09901929,0.33309874,0.31157222,0.13895445,0.09702374,inf,inf,inf,inf,1,1,1,1,2,2,2,2,2,0,1,1,0,0,0
296772523,296771285,20740449,41.1790081,-8.6036451,0.64689267,2.0681303,-1.1877078,0.00023569915,-0.0010364398,-6.15716e-05,-0.014277825,0.024047721,0.033511203,0.07288246,0.0054122694,-0.00391737,-0.021185223,-0.0769058,0.04066593,0.009798878,0.18884695,0.0086743,108.99439,0.10052562,0.32504067,0.3075016,0.13458757,0.095557526,inf,inf,inf,inf,1,1,1,1,2,2,2,2,2,0,1,1,0,0,0
296872456,296871235,20740449,41.1790081,-8.6036451,0.64216983,2.0683243,-1.1814147,0.00023569915,-0.0010364398,-6.15716e-05,-0.015811017,0.020579819,0.03203017,0.07024591,0.0054122694,-0.00391737,-0.021185223,-0.29414567,-0.019696278,-0.25327665,0.18934572,0.0086743,108.99439,0.09362006,0.333233,0.31159437,0.1390263,0.09703633,inf,inf,inf,inf,1,1,1,1,2,2,2,2,2,0,1,1,0,0,0
296972290,296971183,20740449,41.1790081,-8.6036451,0.63825494,2.0687115,-1.1757655,0.00023569915,-0.0010364398,-6.15716e-05,-0.013360233,0.019608913,0.03236748,0.06901672,0.0054122694,-0.00391737,-0.021185223,0.5877562,-0.54306394,-0.21843114,0.18951485,0.0086743,108.99439,0.10408008,0.32511672,0.30749694,0.13458645,0.095551796,inf,inf,inf,inf,1,1,1,1,2,2,2,2,2,0,1,1,0,0,0
297062294,297061138,20740449,41.1790081,-8.6036451,0.6347795,2.067873,-1.1686562,0.00023569915,-0.0010364398,-6.15716e-05,-0.014933823,0.02117092,0.03579128,0.073069766,0.0054122694,-0.00391737,-0.021185223,-0.4238939,-0.05585757,0.8626013,0.18961069,0.0086743,108.99439,0.097154975,0.33246526,0.31092167,0.13857813,0.09684513,inf,inf,inf,inf,1,1,1,1,2,2,2,2,2,0,1,1,0,0,0
297172245,297171082,20740449,41.1790081,-8.6036451,0.63050115,2.0674343,-1.1616806,0.00023569915,-0.0010364398,-6.15716e-05,-0.013544614,0.022726472,0.035115026,0.07147433,0.0054122694,-0.00391737,-0.021185223,0.3988061,0.37471682,0.3459726,0.18980716,0.0086743,108.99439,0.10105181,0.32524568,0.30749795,0.13463916,0.095558845,inf,inf,inf,inf,1,1,1,1,2,2,2,2,2,0,1,1,0,0,0
297272411,297271031,20740449,41.1790081,-8.6036451,0.62555444,2.066962,-1.1547288,0.00023569915,-0.0010364398,-6.15716e-05,-0.015677746,0.02365585,0.033115346,0.06928345,0.0054122694,-0.00391737,-0.021185223,-0.77193004,1.3522412,-0.3580238,0.19019303,0.0086743,108.99439,0.09476471,0.3334393,0.31157985,0.13908495,0.097034484,inf,inf,inf,inf,1,1,1,1,2,2,2,2,2,0,1,1,0,0,0
297372116,297370980,20740449,41.1790081,-8.6036451,0.62144405,2.0670936,-1.1485887,0.00023569915,-0.0010364398,-6.15716e-05,-0.019897094,0.019919947,0.03535532,0.07060884,0.0054122694,-0.00391737,-0.021185223,-1.077693,0.11075361,0.2684645,0.1904869,0.0086743,108.99439,0.10043633,0.3253633,0.30749354,0.13471012,0.09556432,inf,inf,inf,inf,1,1,1,1,2,2,2,2,2,0,1,1,0,0,0
297472059,297470929,20740449,41.1790081,-8.6036451,0.6177879,2.0674727,-1.1419094,0.00023569915,-0.0010364398,-6.15716e-05,-0.01333419,0.01998871,0.03422194,0.069099225,0.0054122694,-0.00391737,-0.021185223,0.8171532,-0.4989168,0.50513,0.19066317,0.0086743,108.99439,0.094287395,0.33356053,0.3115756,0.13914476,0.09703985,inf,inf,inf,inf,1,1,1,1,2,2,2,2,2,0,1,1,0,0,0
297571940,297570878,20740449,41.1790081,-8.6036451,0.6141972,2.0681374,-1.1359663,0.00023569915,-0.0010364398,-6.15716e-05,-0.012849699,0.020913262,0.0364889,0.070258886,0.0054122694,-0.00391737,-0.021185223,0.82838905,-0.5011241,-0.23318557,0.19075638,0.0086743,108.99439,0.101934195,0.32540783,0.30746454,0.13468665,0.09555268,inf,inf,inf,inf,1,1,1,1,2,2,2,2,2,0,1,1,0,0,0
297671878,297670828,20740449,41.1790081,-8.6036451,0.60884297,2.068173,-1.1285985,0.00023569915,-0.0010364398,-6.15716e-05,-0.0167726,0.019629445,0.035433866,0.06941854,0.0054122694,-0.00391737,-0.021185223,-0.5665775,-0.6891046,-0.2440882,0.191048,0.0086743,108.99439,0.09311712,0.33360082,0.3115456,0.13912079,0.09702891,inf,inf,inf,inf,1,1,1,1,2,2,2,2,2,0,1,1,0,0,0
297771870,297770776,20740449,41.1790081,-8.6036451,0.60413545,2.068366,-1.1223085,0.00023569915,-0.0010364398,-6.15716e-05,-0.019623963,0.021440081,0.037199583,0.07039291,0.0054122694,-0.00391737,-0.021185223,-0.32008997,-0.35293084,-0.1552918,0.19123983,0.0086743,108.99439,0.103859305,0.32550815,0.30746195,0.13473763,0.095559575,inf,inf,inf,inf,1,1,1,1,2,2,2,2,2,0,1,1,0,0,0
297871879,297870725,20740449,41.1790081,-8.6036451,0.5994244,2.0680246,-1.1143175,0.00023569915,-0.0010364398,-6.15716e-05,-0.01660464,0.022139879,0.040205993,0.074172966,0.0054122694,-0.00391737,-0.021185223,0.68953,0.22396265,0.93322587,0.19148967,0.0086743,108.99439,0.09316659,0.33370423,0.31154338,0.13917516,0.09703593,inf,inf,inf,inf,1,1,1,1,2,2,2,2,2,0,1,1,0,0,0
297971670,297970674,20740449,41.1790081,-8.6036451,0.5952169,2.0681052,-1.1083716,0.00023569915,-0.0010364398,-6.15716e-05,-0.014457442,0.02290116,0.040167715,0.07280116,0.0054122694,-0.00391737,-0.021185223,0.30396995,0.37316626,0.21448259,0.19171987,0.0086743,108.99439,0.10178685,0.32553738,0.30742937,0.13470027,0.09554893,inf,inf,inf,inf,1,1,1,1,2,2,2,2,2,0,1,1,0,0,0
298071577,298070623,20740449,41.1790081,-8.6036451,0.59011453,2.0677798,-1.1006176,0.00023569915,-0.0010364398,-6.15716e-05,-0.019597936,0.02171262,0.03932311,0.07236629,0.0054122694,-0.00391737,-0.021185223,-0.5939599,0.59888124,-0.25134718,0.19202085,0.0086743,108.99439,0.09427214,0.3337289,0.31150994,0.1391435,0.09702556,inf,inf,inf,inf,1,1,1,1,2,2,2,2,2,0,1,1,0,0,0
298171570,298170572,20740449,41.1790081,-8.6036451,0.58627665,2.0679686,-1.0942445,0.00023569915,-0.0010364398,-6.15716e-05,-0.01794586,0.018930074,0.037184443,0.06933976,0.0054122694,-0.00391737,-0.021185223,0.057981726,-0.6515447,-0.39461616,0.19228709,0.0086743,108.99439,0.09846282,0.32564405,0.3074291,0.13476023,0.09555705,inf,inf,inf,inf,1,1,1,1,2,2,2,2,2,0,1,1,0,0,0
298271481,298270522,20740449,41.1790081,-8.6036451,0.58357817,2.0683467,-1.087723,0.00023569915,-0.0010364398,-6.15716e-05,-0.014652377,0.017599491,0.042334277,0.073735654,0.0054122694,-0.00391737,-0.021185223,1.1190225,-0.904211,0.5066058,0.19248721,0.0086743,108.99439,0.09237492,0.33383936,0.31151012,0.1392124,0.09703345,inf,inf,inf,inf,1,1,1,1,2,2,2,2,2,0,1,1,0,0,0
298371571,298370470,20740449,41.1790081,-8.6036451,0.5806221,2.0690606,-1.0817729,0.00023569915,-0.0010364398,-6.15716e-05,-0.014105693,0.018270947,0.039373364,0.06960114,0.0054122694,-0.00391737,-0.021185223,0.14693803,-0.34784907,0.14875138,0.19268195,0.0086743,108.99439,0.09802055,0.3257411,0.3074293,0.1347974,0.09556477,inf,inf,inf,inf,1,1,1,1,2,2,2,2,2,0,1,1,0,0,0
298471513,298470420,20740449,41.1790081,-8.6036451,0.5765973,2.0697842,-1.0750332,0.00023569915,-0.0010364398,-6.15716e-05,-0.018564608,0.023743978,0.039894417,0.06973033,0.0054122694,-0.00391737,-0.021185223,-0.6273949,1.0185573,-0.3651523,0.19289781,0.0086743,108.99439,0.09220016,0.33393925,0.31151077,0.13925269,0.097041465,inf,inf,inf,inf,1,1,1,1,2,2,2,2,2,0,1,1,0,0,0
298571610,298570373,20740449,41.1790081,-8.6036451,0.573234,2.0698907,-1.069726,0.00023569915,-0.0010364398,-6.15716e-05,-0.01733506,0.024165692,0.03887291,0.06701886,0.0054122694,-0.00391737,-0.021185223,-0.34519434,1.7772946,-0.09398673,0.1932055,0.0086743,108.99439,0.09359884,0.3258487,0.30742988,0.13484882,0.095572494,inf,inf,inf,inf,1,1,1,1,2,2,2,2,2,0,1,1,0,0,0
298671372,298670318,20740449,41.1790081,-8.6036451,0.5702189,2.0682092,-1.064755,0.00023569915,-0.0010364398,-6.15716e-05,-0.0145086525,0.019476674,0.041001957,0.06732915,0.0054122694,-0.00391737,-0.021185223,0.34458628,-0.3411437,0.41305754,0.19340761,0.0086743,108.99439,0.08927071,0.33404997,0.3115118,0.1392974,0.097049356,inf,inf,inf,inf,1,1,1,1,2,2,2,2,2,0,1,1,0,0,0
298771571,298770267,20740449,41.1790081,-8.6036451,0.56734884,2.067762,-1.0606558,0.00023569915,-0.0010364398,-6.15716e-05,-0.013113342,0.01697346,0.04010616,0.06408117,0.0054122694,-0.00391737,-0.021185223,0.07302933,-0.618327,0.14285333,0.19365332,0.0086743,108.99439,0.09374702,0.32588494,0.30740082,0.13480848,0.09556094,inf,inf,inf,inf,1,1,1,1,2,2,2,2,2,0,1,1,0,0,0
298871519,298870220,20740449,41.1790081,-8.6036451,0.56338453,2.0688775,-1.0555362,0.00023569915,-0.0010364398,-6.15716e-05,-0.015994973,0.01662282,0.038783252,0.061596967,0.0054122694,-0.00391737,-0.021185223,-0.46528235,-1.1982985,-0.65844864,0.1938498,0.0086743,108.99439,0.09071159,0.33408123,0.3114717,0.13925433,0.09703453,inf,inf,inf,inf,1,1,1,1,2,2,2,2,2,0,1,1,0,0,0
298971341,298970165,20740449,41.1790081,-8.6036451,0.55996186,2.0702589,-1.05112,0.00023569915,-0.0010364398,-6.15716e-05,-0.015438035,0.022460448,0.03722837,0.05830697,0.0054122694,-0.00391737,-0.021185223,0.20013028,0.69273144,-0.8454284,0.19404815,0.0086743,108.99439,0.09072316,0.32599682,0.3073896,0.13485695,0.095564,inf,inf,inf,inf,1,1,1,1,2,2,2,2,2,0,1,1,0,0,0
299071309,299070114,20740449,41.1790081,-8.6036451,0.55684674,2.0717576,-1.0474349,0.00023569915,-0.0010364398,-6.15716e-05,-0.010980273,0.020944772,0.04156905,0.060433418,0.0054122694,-0.00391737,-0.021185223,0.7547968,0.53815544,1.1233752,0.19422299,0.0086743,108.99439,0.087341905,0.3341964,0.31146058,0.13930602,0.0970383,inf,inf,inf,inf,1,1,1,1,2,2,2,2,2,0,1,1,0,0,0
299171241,299170064,20740449,41.1790081,-8.6036451,0.55371517,2.073344,-1.0443746,0.00023569915,-0.0010364398,-6.15716e-05,-0.012960603,0.021489821,0.040721443,0.057117395,0.0054122694,-0.00391737,-0.021185223,0.62926924,-0.2421731,0.5699238,0.19437943,0.0086743,108.99439,0.09379482,0.32603654,0.30735424,0.13480824,0.09555096,inf,inf,inf,inf,1,1,1,1,2,2,2,2,2,0,1,1,0,0,0
299271151,299270020,20740449,41.1790081,-8.6036451,0.5490569,2.0738933,-1.0397147,0.00023569915,-0.0010364398,-6.15716e-05,-0.01580752,0.021450365,0.03740936,0.053055327,0.0054122694,-0.00391737,-0.021185223,-0.5657828,0.5754246,-0.063557275,0.19461201,0.0086743,108.99439,0.08948934,0.33423105,0.31142423,0.13925257,0.09702479,inf,inf,inf,inf,1,1,1,1,2,2,2,2,2,0,1,1,0,0,0
299371073,299369961,20740449,41.1790081,-8.6036451,0.5456926,2.0747302,-1.0358986,0.00023569915,-0.0010364398,-6.15716e-05,-0.017847942,0.020437242,0.037092812,0.051171623,0.0054122694,-0.00391737,-0.021185223,-0.27579814,-0.49036506,-0.8580931,0.19465367,0.0086743,108.99439,0.0894084,0.32613212,0.3073458,0.1348622,0.09555579,inf,inf,inf,inf,1,1,1,1,2,2,2,2,2,0,1,1,0,0,0
299470988,299469911,20740449,41.1790081,-8.6036451,0.54379267,2.0755854,-1.032694,0.00023569915,-0.0010364398,-6.15716e-05,-0.0152624715,0.022574393,0.03789671,0.050025344,0.0054122694,-0.00391737,-0.021185223,-0.12651461,0.5584353,0.107605316,0.19466034,0.0086743,108.99439,0.08676493,0.33432958,0.31141615,0.13930649,0.09702967,inf,inf,inf,inf,1,1,1,1,2,2,2,2,2,0,1,1,0,0,0
299570995,299569860,20740449,41.1790081,-8.6036451,0.5420786,2.0767643,-1.0305402,0.00023569915,-0.0010364398,-6.15716e-05,-0.010054128,0.017735336,0.041343655,0.05077324,0.0054122694,-0.00391737,-0.021185223,0.59456104,-1.40291,0.580127,0.19457708,0.0086743,108.99439,0.088930964,0.32609698,0.3073133,0.1348129,0.095543794,inf,inf,inf,inf,1,1,1,1,2,2,2,2,2,0,1,1,0,0,0
299670959,299669809,20740449,41.1790081,-8.6036451,0.5398488,2.0778263,-1.027578,0.00023569915,-0.0010364398,-6.15716e-05,-0.012331299,0.022676822,0.038270008,0.046106648,0.0054122694,-0.00391737,-0.021185223,-0.46395767,0.20468311,-0.17620322,0.19458914,0.0086743,108.99439,0.09088051,0.33428788,0.3113828,0.13924137,0.0970178,inf,inf,inf,inf,1,1,1,1,2,2,2,2,2,0,1,1,0,0,0
299770985,299769758,20740449,41.1790081,-8.6036451,0.53761196,2.0786912,-1.0235144,0.00023569915,-0.0010364398,-6.15716e-05,-0.011591543,0.020587979,0.037828393,0.045334898,0.0054122694,-0.00391737,-0.021185223,-0.26238477,-0.7086049,-0.25639373,0.19465077,0.0086743,108.99439,0.096431494,0.32606506,0.3073022,0.13483381,0.095549434,inf,inf,inf,inf,1,1,1,1,2,2,2,2,2,0,1,1,0,0,0
299870798,299869707,20740449,41.1790081,-8.6036451,0.5348164,2.0788643,-1.0184985,0.00023569915,-0.0010364398,-6.15716e-05,-0.012670982,0.023305155,0.03852148,0.04661501,0.0054122694,-0.00391737,-0.021185223,0.5974496,0.13259284,0.17535475,0.19454396,0.0086743,108.99439,0.09090698,0.33425635,0.31137216,0.13927855,0.09702358,inf,inf,inf,inf,1,1,1,1,2,2,2,2,2,0,1,1,0,0,0
299970738,299969656,20740449,41.1790081,-8.6036451,0.5321896,2.0793755,-1.0147475,0.00023569915,-0.0010364398,-6.15716e-05,-0.012707972,0.021627443,0.037398767,0.04490107,0.0054122694,-0.00391737,-0.021185223,-0.09937942,-0.12012598,0.020003356,0.1946374,0.0086743,108.99439,0.09443498,0.3260364,0.30729246,0.13485524,0.09555497,inf,inf,inf,inf,1,1,1,1,2,2,2,2,2,0,1,1,0,0,0
300070729,300069606,20740449,41.1790081,-8.6036451,0.52935785,2.0797536,-1.010339,0.00023569915,-0.0010364398,-6.15716e-05,-0.013496874,0.02351593,0.03618884,0.043769732,0.0054122694,-0.00391737,-0.021185223,-0.1144146,-0.029819705,-0.73032475,0.19454402,0.0086743,108.99439,0.09197104,0.33422813,0.3113629,0.13930279,0.09702927,inf,inf,inf,inf,1,1,1,1,2,2,2,2,2,0,1,1,0,0,0
300170644,300169555,20740449,41.1790081,-8.6036451,0.5269743,2.0805912,-1.0066966,0.00023569915,-0.0010364398,-6.15716e-05,-0.012831588,0.02395689,0.03879883,0.045807112,0.0054122694,-0.00391737,-0.021185223,-0.5994059,1.3123487,0.33371148,0.19468112,0.0086743,108.99439,0.09377372,0.32594803,0.30725884,0.13481107,0.095543385,inf,inf,inf,inf,1,1,1,1,2,2,2,2,2,0,1,1,0,0,0
300270606,300269504,20740449,41.1790081,-8.6036451,0.524814,2.0815725,-1.0030105,0.00023569915,-0.0010364398,-6.15716e-05,-0.016249327,0.026565693,0.03919082,0.045700047,0.0054122694,-0.00391737,-0.021185223,-0.8028525,2.5052814,0.3425045,0.19478174,0.0086743,108.99439,0.09106588,0.3341331,0.31132862,0.13924403,0.09701809,inf,inf,inf,inf,1,1,1,1,2,2,2,2,2,0,1,1,0,0,0
300370530,300369453,20740449,41.1790081,-8.6036451,0.52322996,2.082902,-0.9999157,0.00023569915,-0.0010364398,-6.15716e-05,-0.014552992,0.016977265,0.034732062,0.040331315,0.0054122694,-0.00391737,-0.021185223,-0.47377384,-1.66894,1.0831581,0.19475809,0.0086743,108.99439,0.094264865,0.3258458,0.30722722,0.13475224,0.09553336,inf,inf,inf,inf,1,1,1,1,2,2,2,2,2,0,1,1,0,0,0
300470619,300469402,20740449,41.1790081,-8.6036451,0.522712,2.0842845,-0.9964836,0.00023569915,-0.0010364398,-6.15716e-05,-0.010472223,0.023403848,0.034244444,0.039335545,0.0054122694,-0.00391737,-0.021185223,1.0609535,0.1126537,-1.3413572,0.19492142,0.0086743,108.99439,0.089953005,0.33402446,0.31129643,0.13920934,0.09700737,inf,inf,inf,inf,1,1,1,1,2,2,2,2,2,0,1,1,0,0,0
300570340,300569351,20740449,41.1790081,-8.6036451,0.5217158,2.0857668,-0.99414045,0.00023569915,-0.0010364398,-6.15716e-05,-0.007634396,0.025491944,0.032844085,0.036538802,0.0054122694,-0.00391737,-0.021185223,1.1183653,1.4188831,0.21400622,0.19487368,0.0086743,108.99439,0.092191875,0.3257511,0.30837232,0.13472767,0.0956892,inf,inf,inf,inf,1,1,1,1,2,2,2,2,2,0,1,1,0,0,0
300670403,300669302,20740449,41.1790081,-8.6036451,0.51894695,2.0866756,-0.9927861,0.00023569915,-0.0010364398,-6.15716e-05,-0.013702376,0.029658819,0.03207724,0.03357383,0.0054122694,-0.00391737,-0.021185223,0.61335564,2.1284664,-1.5868,0.19504137,0.0086743,108.99439,0.08846027,0.3339246,0.3124786,0.13917273,0.097172275,inf,inf,inf,inf,1,1,1,1,2,2,2,2,2,0,1,1,0,0,0
300770283,300769250,20740449,41.1790081,-8.6036451,0.5166903,2.0878484,-0.9916193,0.00023569915,-0.0010364398,-6.15716e-05,-0.014241163,0.024090936,0.024386458,0.023947995,0.0054122694,-0.00391737,-0.021185223,-1.1824708,0.64374685,-1.4503129,0.19518057,0.0086743,108.99439,0.09038931,0.32570663,0.30834553,0.13476683,0.09569288,inf,inf,inf,inf,1,1,1,1,2,2,2,2,2,0,1,1,0,0,0
300870190,300869199,20740449,41.1790081,-8.6036451,0.51501536,2.0888655,-0.9902175,0.00023569915,-0.0010364398,-6.15716e-05,-0.007649937,0.015459172,0.03526533,0.033405956,0.0054122694,-0.00391737,-0.021185223,1.8841058,-2.7591732,1.1876489,0.19548513,0.0086743,108.99439,0.090221286,0.33388272,0.31245223,0.13923514,0.09717535,inf,inf,inf,inf,1,1,1,1,2,2,2,2,2,0,1,1,0,0,0
300970186,300969148,20740449,41.1790081,-8.6036451,0.51371425,2.0904753,-0.9910361,0.00023569915,-0.0010364398,-6.15716e-05,-0.013383989,0.018570494,0.02794354,0.023148727,0.0054122694,-0.00391737,-0.021185223,1.5033361,-0.92964184,0.9307746,0.19620186,0.0086743,108.99439,0.091039896,0.32560635,0.3082959,0.13471316,0.09567896,inf,inf,inf,inf,1,1,1,1,2,2,2,2,2,0,1,1,0,0,0
301070153,301069097,20740449,41.1790081,-8.6036451,0.5125965,2.0918012,-0.9932139,0.00023569915,-0.0010364398,-6.15716e-05,-0.018937664,0.009008002,0.011557194,0.0030371451,0.0054122694,-0.00391737,-0.021185223,0.033020694,-3.568136,-2.9545467,0.19864398,0.0086743,108.99439,0.09321767,0.33377817,0.31240192,0.13917823,0.09716245,inf,inf,inf,inf,1,1,1,1,2,2,2,2,2,0,1,1,0,0,0
301170136,301169046,20740449,41.1790081,-8.6036451,0.5107163,2.0915074,-0.99869144,0.00023569915,-0.0010364398,-6.15716e-05,-0.030311652,-0.009767948,0.01520131,0.0014433146,0.0054122694,-0.00391737,-0.021185223,-1.2859985,-2.1898265,2.8731523,0.20548229,0.0086743,108.99439,0.09869522,0.3255552,0.30826947,0.13482216,0.095683545,inf,inf,inf,inf,1,1,1,1,2,2,2,2,2,0,1,1,0,0,0
301270171,301268995,20740449,41.1790081,-8.6036451,0.5086807,2.0877962,-1.00611,0.00023569915,-0.0010364398,-6.15716e-05,-0.018004999,-0.038916644,-0.0046384716,-0.023542924,0.0054122694,-0.00391737,-0.021185223,0.37126333,-1.4807287,0.7731106,0.21754755,0.0086743,108.99439,0.10611373,0.3337316,0.3123761,0.13924858,0.0971663,inf,inf,inf,inf,1,1,1,1,2,2,2,2,2,0,1,1,0,0,0
301370019,301368948,20740449,41.1790081,-8.6036451,0.50643617,2.0817297,-1.0158356,0.00023569915,-0.0010364398,-6.15716e-05,-0.026214654,-0.06657136,-0.027499003,-0.051986538,0.0054122694,-0.00391737,-0.021185223,-0.31498975,-0.7610593,0.56477726,0.22848833,0.0086743,108.99439,0.11583942,0.32544872,0.30822033,0.13482301,0.09567374,inf,inf,inf,inf,1,1,1,1,2,2,2,2,2,0,1,1,0,0,0
301470188,301468894,20740449,41.1790081,-8.6036451,0.50189805,2.0750544,-1.0252533,0.00023569915,-0.0010364398,-6.15716e-05,-0.040536232,-0.072827116,-0.03190116,-0.060117703,0.0054122694,-0.00391737,-0.021185223,-0.45610303,-0.27468422,-0.21092215,0.23021975,0.0086743,108.99439,0.12525707,0.3336231,0.31232646,0.13935532,0.0971616,inf,inf,inf,inf,1,1,1,1,2,2,2,2,2,0,1,1,0,0,0
301569779,301568843,20740449,41.1790081,-8.6036451,0.49679482,2.0681343,-1.0349935,0.00023569915,-0.0010364398,-6.15716e-05,-0.0638534,-0.06292064,-0.05636875,-0.08707311,0.0054122694,-0.00391737,-0.021185223,1.0273566,-2.1953554,0.08811943,0.21854876,0.0086743,108.99439,0.13499731,0.3254156,0.3081998,0.13494751,0.095703214,inf,inf,inf,inf,1,1,1,1,2,2,2,2,2,0,1,1,0,0,0
301669944,301668792,20740449,41.1790081,-8.6036451,0.48994315,2.055536,-1.0469707,0.00023569915,-0.0010364398,-6.15716e-05,-0.1171477,-0.12143549,-0.09827496,-0.12989774,0.0054122694,-0.00391737,-0.021185223,-1.9128169,0.35611346,0.93371415,0.21476397,0.0086743,108.99439,0.1469745,0.33359584,0.3123072,0.13949573,0.09724308,inf,inf,inf,inf,1,1,1,1,2,2,2,2,2,0,1,1,0,0,0
301769908,301768741,20740449,41.1790081,-8.6036451,0.47820693,2.0376894,-1.0628353,0.00023569915,-0.0010364398,-6.15716e-05,-0.15738165,-0.17650332,-0.1527416,-0.18440777,0.0054122694,-0.00391737,-0.021185223,1.381737,-0.12857233,-1.321971,0.23254375,0.0086743,108.99439,0.16283911,0.3253641,0.30818212,0.13521805,0.09579001,inf,inf,inf,inf,1,1,1,1,2,2,2,2,2,0,1,1,0,0,0
301869678,301868691,20740449,41.1790081,-8.6036451,0.46190646,2.0161326,-1.081546,0.00023569915,-0.0010364398,-6.15716e-05,-0.20412329,-0.21052621,-0.19498911,-0.22426853,0.0054122694,-0.00391737,-0.021185223,-2.3003323,1.8268559,0.55673325,0.259805,0.0086743,108.99439,0.18154973,0.33355644,0.31229058,0.13993017,0.09729447,inf,inf,inf,inf,1,1,1,1,2,2,2,2,2,0,1,1,0,0,0
301969632,301968640,20740449,41.1790081,-8.6036451,0.44346288,1.9939297,-1.101547,0.00023569915,-0.0010364398,-6.15716e-05,-0.23416233,-0.22310492,-0.19423886,-0.22039042,0.0054122694,-0.00391737,-0.021185223,-2.3639898,0.66986877,1.3285695,0.2923293,0.0086743,108.99439,0.20155078,0.3253214,0.3081666,0.13562492,0.095824085,inf,inf,inf,inf,1,1,1,1,2,2,2,2,2,0,1,1,0,0,0
302069691,302068589,20740449,41.1790081,-8.6036451,0.42689157,1.9735763,-1.119678,0.00023569915,-0.0010364398,-6.15716e-05,-0.2332688,-0.23031785,-0.21417335,-0.23520283,0.0054122694,-0.00391737,-0.021185223,-0.105597876,2.8634677,1.0422806,0.33060884,0.0086743,108.99439,0.2196818,0.33352485,0.3122764,0.14014299,0.097328,inf,inf,inf,inf,1,1,1,1,2,2,2,2,2,0,1,1,0,0,0
302169533,302168538,20740449,41.1790081,-8.6036451,0.40972745,1.9520078,-1.1406468,0.00023569915,-0.0010364398,-6.15716e-05,-0.2188319,-0.25517404,-0.2218099,-0.23939966,0.0054122694,-0.00391737,-0.021185223,1.6713539,-1.9093667,-1.4427699,0.3699403,0.0086743,108.99439,0.2406506,0.32522792,0.30812812,0.13568439,0.09583955,inf,inf,inf,inf,1,1,1,1,2,2,2,2,2,0,1,1,0,0,0
302269573,302268487,20740449,41.1790081,-8.6036451,0.3937486,1.9299951,-1.16056,0.00023569915,-0.0010364398,-6.15716e-05,-0.21780826,-0.25060913,-0.24283457,-0.25582036,0.0054122694,-0.00391737,-0.021185223,0.29893824,-1.7539326,-0.89087665,0.40649214,0.0086743,108.99439,0.2605638,0.3334296,0.31223845,0.14033118,0.09732807,inf,inf,inf,inf,1,1,1,1,2,2,2,2,2,0,1,1,0,0,0
302369559,302368437,20740449,41.1790081,-8.6036451,0.3782413,1.9066541,-1.1832558,0.00023569915,-0.0010364398,-6.15716e-05,-0.18928634,-0.23532322,-0.26207313,-0.27059472,0.0054122694,-0.00391737,-0.021185223,-0.17640467,2.9067793,-0.670056,0.44515765,0.0086743,108.99439,0.28325957,0.32516757,0.3081021,0.1360663,0.0958563,inf,inf,inf,inf,1,1,1,1,2,2,2,2,2,0,1,1,0,0,0
302469480,302468386,20740449,41.1790081,-8.6036451,0.36352625,1.8827211,-1.207453,0.00023569915,-0.0010364398,-6.15716e-05,-0.16568002,-0.22649622,-0.29890665,-0.3025468,0.0054122694,-0.00391737,-0.021185223,0.108700775,-1.1261276,-0.63426703,0.48501578,0.0086743,108.99439,0.3074568,0.3333774,0.31220418,0.1409674,0.097360924,inf,inf,inf,inf,1,1,1,1,2,2,2,2,2,0,1,1,0,0,0
302569581,302568336,20740449,41.1790081,-8.6036451,0.34884906,1.8594116,-1.2371398,0.00023569915,-0.0010364398,-6.15716e-05,-0.13473807,-0.20948109,-0.3211367,-0.32264796,0.0054122694,-0.00391737,-0.021185223,1.249123,0.8303582,-0.03834798,0.5233735,0.0086743,108.99439,0.3371436,0.32509223,0.30804986,0.1369334,0.09588134,inf,inf,inf,inf,1,1,1,1,2,2,2,2,2,0,1,1,0,0,0
302669466,302668286,20740449,41.1790081,-8.6036451,0.33235064,1.8361878,-1.2686307,0.00023569915,-0.0010364398,-6.15716e-05,-0.12901711,-0.19057551,-0.3364866,-0.3362165,0.0054122694,-0.00391737,-0.021185223,-2.5612938,0.87112975,-0.47764954,0.5597669,0.0086743,108.99439,0.36863452,0.33331466,0.31215364,0.14225046,0.097388536,inf,inf,inf,inf,1,1,1,1,2,2,2,2,2,0,1,1,0,0,0
302769478,302768234,20740449,41.1790081,-8.6036451,0.3190482,1.8152158,-1.3048098,0.00023569915,-0.0010364398,-6.15716e-05,-0.09695282,-0.16910818,-0.38618392,-0.38566926,0.0054122694,-0.00391737,-0.021185223,0.3197846,-0.82698697,-1.6435314,0.5941264,0.0086743,108.99439,0.4048136,0.32500985,0.30799788,0.138372,0.09591635,inf,inf,inf,inf,1,1,1,1,2,2,2,2,2,0,1,1,0,0,0
302869235,302868183,20740449,41.1790081,-8.6036451,0.30752555,1.7970796,-1.3448814,0.00023569915,-0.0010364398,-6.15716e-05,-0.05891214,-0.14475417,-0.39966848,-0.39893642,0.0054122694,-0.00391737,-0.021185223,3.5101252,0.9925707,1.0653294,0.63001,0.0086743,108.99439,0.4448852,0.33324903,0.31210357,0.14437197,0.09742829,inf,inf,inf,inf,1,1,1,1,2,2,2,2,2,0,1,1,0,0,0
302969483,302968132,20740449,41.1790081,-8.6036451,0.29958913,1.7815369,-1.3875736,0.00023569915,-0.0010364398,-6.15716e-05,-0.0529007,-0.11484698,-0.41105866,-0.41168222,0.0054122694,-0.00391737,-0.021185223,-3.6640794,1.8825738,0.5650714,0.6634174,0.0086743,108.99439,0.48757738,0.32485437,0.30791494,0.1406182,0.095942505,inf,inf,inf,inf,1,1,1,1,2,2,2,2,2,0,1,1,0,0,0
303069090,303068081,20740449,41.1790081,-8.6036451,0.29348093,1.7677549,-1.4318184,0.00023569915,-0.0010364398,-6.15716e-05,-0.016025534,-0.09045199,-0.4245914,-0.42661735,0.0054122694,-0.00391737,-0.021185223,1.6025175,-0.64463097,0.6322556,0.69651175,0.0086743,108.99439,0.53182214,0.33310917,0.3120218,0.14711294,0.09747363,inf,inf,inf,inf,1,1,1,1,2,2,2,2,2,0,1,1,0,0,0
303169742,303168031,20740449,41.1790081,-8.6036451,0.29100955,1.7584004,-1.480035,0.00023569915,-0.0010364398,-6.15716e-05,0.01168608,-0.036778808,-0.42578855,-0.43282896,0.0054122694,-0.00391737,-0.021185223,2.6292572,0.40411046,-0.07505752,0.72825575,0.0086743,108.99439,0.5800387,0.32467636,0.30780846,0.14345434,0.09597114,inf,inf,inf,inf,1,1,1,1,2,2,2,2,2,0,1,1,0,0,0
303269158,303267980,20740449,41.1790081,-8.6036451,0.29042554,1.7507058,-1.5297897,0.00023569915,-0.0010364398,-6.15716e-05,0.053153057,0.0070174015,-0.4183044,-0.43189293,0.0054122694,-0.00391737,-0.021185223,-3.305731,1.4753999,-0.50096226,0.7567684,0.0086743,108.99439,0.62979347,0.33294576,0.31191593,0.15063456,0.09753659,inf,inf,inf,inf,1,1,1,1,2,2,2,2,2,0,1,1,0,0,0
303369134,303367929,20740449,41.1790081,-8.6036451,0.2939436,1.7498869,-1.5825156,0.00023569915,-0.0010364398,-6.15716e-05,0.08952214,0.06252382,-0.41527036,-0.43798488,0.0054122694,-0.00391737,-0.021185223,2.4421897,-0.29713762,-0.370344,0.78251094,0.0086743,108.99439,0.6825194,0.32458344,0.3077307,0.14706661,0.09607842,inf,inf,inf,inf,1,1,1,1,2,2,2,2,2,0,1,1,0,0,0
303468814,303467879,20740449,41.1790081,-8.6036451,0.29931685,1.7531922,-1.6361276,0.00023569915,-0.0010364398,-6.15716e-05,0.10178905,0.10590264,-0.42087477,-0.4520986,0.0054122694,-0.00391737,-0.021185223,0.2375768,1.8178278,1.3834682,0.8035562,0.0086743,108.99439,0.73613137,0.33289075,0.31184167,0.1549468,0.097668864,inf,inf,inf,inf,1,1,1,1,2,2,2,2,2,0,1,1,0,0,0
303568983,303567833,20740449,41.1790081,-8.6036451,0.30658433,1.7600108,-1.6906286,0.00023569915,-0.0010364398,-6.15716e-05,0.08502085,0.12893091,-0.4116695,-0.45059988,0.0054122694,-0.00391737,-0.021185223,-1.8048993,-1.3746387,1.6150504,0.8246602,0.0086743,108.99439,0.7906324,0.32448515,0.3076561,0.15124136,0.09622587,inf,inf,inf,inf,1,1,1,1,2,2,2,2,2,0,1,1,0,0,0
303668788,303667777,20740449,41.1790081,-8.6036451,0.3122382,1.7672399,-1.7423514,0.00023569915,-0.0010364398,-6.15716e-05,0.12104258,0.15180875,-0.42505163,-0.4702755,0.0054122694,-0.00391737,-0.021185223,0.22697645,-0.8502742,0.80888647,0.84283555,0.0086743,108.99439,0.8423552,0.3328496,0.31177112,0.15964171,0.09781048,inf,inf,inf,inf,1,1,1,1,2,2,2,2,2,0,1,1,0,0,0
303768767,303767726,20740449,41.1790081,-8.6036451,0.31897777,1.778786,-1.7966034,0.00023569915,-0.0010364398,-6.15716e-05,0.124559715,0.18185739,-0.43762913,-0.48913574,0.0054122694,-0.00391737,-0.021185223,3.2665298,0.21532196,0.05763199,0.855594,0.0086743,108.99439,0.8966072,0.32438633,0.30757946,0.15553194,0.096325316,inf,inf,inf,inf,1,1,1,1,2,2,2,2,2,0,1,1,0,0,0
303868834,303867676,20740449,41.1790081,-8.6036451,0.32323736,1.792752,-1.8547469,0.00023569915,-0.0010364398,-6.15716e-05,0.08551336,0.21041335,-0.45350438,-0.5132403,0.0054122694,-0.00391737,-0.021185223,-1.2193334,-0.14301415,0.16157891,0.8666885,0.0086743,108.99439,0.9547507,0.33282053,0.311699,0.16447048,0.09792145,inf,inf,inf,inf,1,1,1,1,2,2,2,2,2,0,1,1,0,0,0
303968670,303967625,20740449,41.1790081,-8.6036451,0.32797402,1.8105917,-1.915458,0.00023569915,-0.0010364398,-6.15716e-05,0.09557744,0.23362686,-0.43381697,-0.5024894,0.0054122694,-0.00391737,-0.021185223,0.4874019,2.00703,2.644426,0.8788599,0.0086743,108.99439,1.0154617,0.324295,0.30748972,0.15966068,0.09646448,inf,inf,inf,inf,1,1,1,1,2,2,2,2,2,0,1,1,0,0,0
304068713,304067574,20740449,41.1790081,-8.6036451,0.33733943,1.8315767,-1.9733524,0.00023569915,-0.0010364398,-6.15716e-05,0.08648035,0.25013265,-0.43040618,-0.5064426,0.0054122694,-0.00391737,-0.021185223,0.50709474,-1.4605927,-0.18095134,0.8898968,0.0086743,108.99439,1.0733562,0.3328141,0.31161436,0.16861813,0.09807621,inf,inf,inf,inf,1,1,1,1,2,2,2,2,2,0,1,1,0,0,0
304168608,304167523,20740449,41.1790081,-8.6036451,0.34693798,1.8557225,-2.0327408,0.00023569915,-0.0010364398,-6.15716e-05,0.09497017,0.26374236,-0.43941572,-0.52263176,0.0054122694,-0.00391737,-0.021185223,1.3593538,1.5346028,0.4499229,0.90044945,0.0086743,108.99439,1.1327446,0.32428876,0.30742502,0.16313721,0.09661008,inf,inf,inf,inf,1,1,1,1,2,2,2,2,2,0,1,1,0,0,0
304268478,304267474,20740449,41.1790081,-8.6036451,0.35815927,1.8831254,-2.0875838,0.00023569915,-0.0010364398,-6.15716e-05,0.084779054,0.25420335,-0.42369962,-0.5110683,0.0054122694,-0.00391737,-0.021185223,-3.3044622,-0.8773701,-0.59126157,0.90865034,0.0086743,108.99439,1.1875875,0.3329107,0.31154644,0.17231293,0.098226935,inf,inf,inf,inf,1,1,1,1,2,2,2,2,2,0,1,1,0,0,0
304368427,304367431,20740449,41.1790081,-8.6036451,0.36952224,1.9102706,-2.1457324,0.00023569915,-0.0010364398,-6.15716e-05,0.10429484,0.27647537,-0.4447062,-0.53694654,0.0054122694,-0.00391737,-0.021185223,-1.4876583,-0.44097754,1.1488588,0.91010517,0.0086743,108.99439,1.2457361,0.32431084,0.3073402,0.1659868,0.09671018,inf,inf,inf,inf,1,1,1,1,2,2,2,2,2,0,1,1,0,0,0
304468410,304467371,20740449,41.1790081,-8.6036451,0.37924072,1.9363203,-2.2027473,0.00023569915,-0.0010364398,-6.15716e-05,0.1012917,0.27852637,-0.43342438,-0.52955097,0.0054122694,-0.00391737,-0.021185223,-1.0054746,0.35294554,-3.0526402,0.89599746,0.0086743,108.99439,1.3027511,0.33303785,0.31146783,0.17515065,0.09834335,inf,inf,inf,inf,1,1,1,1,2,2,2,2,2,0,1,1,0,0,0
304568372,304567321,20740449,41.1790081,-8.6036451,0.39033777,1.9635931,-2.2579663,0.00023569915,-0.0010364398,-6.15716e-05,0.115221545,0.28390855,-0.39886612,-0.49717042,0.0054122694,-0.00391737,-0.021185223,0.16175638,2.402254,1.4353718,0.8609553,0.0086743,108.99439,1.35797,0.32424963,0.30721164,0.1678421,0.09681184,inf,inf,inf,inf,1,1,1,1,2,2,2,2,2,0,1,1,0,0,0
304668336,304667270,20740449,41.1790081,-8.6036451,0.40526435,1.9909587,-2.3120685,0.00023569915,-0.0010364398,-6.15716e-05,0.11607753,0.26560208,-0.41120976,-0.5113908,0.0054122694,-0.00391737,-0.021185223,-2.0897965,2.5228386,-1.4307816,0.7937876,0.0086743,108.99439,1.4120722,0.33305773,0.3113445,0.17620319,0.098430045,inf,inf,inf,inf,1,1,1,1,2,2,2,2,2,0,1,1,0,0,0
304768339,304767219,20740449,41.1790081,-8.6036451,0.42119595,2.0183263,-2.365616,0.00023569915,-0.0010364398,-6.15716e-05,0.13275996,0.24241439,-0.4354663,-0.5354124,0.0054122694,-0.00391737,-0.021185223,2.9995182,-1.8664314,2.350375,0.67604506,0.0086743,108.99439,1.4656198,0.3242344,0.30709496,0.16808784,0.096879825,inf,inf,inf,inf,1,1,1,1,2,2,2,2,2,0,1,1,0,0,0
304868274,304867168,20740449,41.1790081,-8.6036451,0.43694603,2.0468283,-2.4208632,0.00023569915,-0.0010364398,-6.15716e-05,0.11936097,0.19728057,-0.46466398,-0.56385154,0.0054122694,-0.00391737,-0.021185223,3.232995,-7.5065775,-3.0533364,0.5180346,0.0086743,108.99439,1.5208669,0.3331158,0.31123346,0.17519586,0.09845533,inf,inf,inf,inf,1,1,1,1,2,2,2,2,2,0,1,1,0,0,0
304968336,304967118,20740449,41.1790081,-8.6036451,0.44952247,2.070759,-2.4760816,0.00023569915,-0.0010364398,-6.15716e-05,0.06222402,0.18342619,-0.44036588,-0.537924,0.0054122694,-0.00391737,-0.021185223,-3.3454638,0.07388307,5.2904406,0.33831552,0.0086743,108.99439,1.5760853,0.32418728,0.3069599,0.16529468,0.09683509,inf,inf,inf,inf,1,1,1,1,2,2,2,2,2,0,1,1,0,0,0
305068259,305067068,20740449,41.1790081,-8.6036451,0.45868683,2.0879602,-2.525339,0.00023569915,-0.0010364398,-6.15716e-05,0.005340497,0.15581265,-0.43515012,-0.52669716,0.0054122694,-0.00391737,-0.021185223,-2.16746,2.7727118,1.6227305,0.14046043,0.0086743,108.99439,1.6253426,0.3330767,0.31110176,0.16936421,0.09844548,inf,inf,inf,inf,1,1,1,1,2,2,2,2,2,0,1,1,0,0,0
305168085,305167017,20740449,41.1790081,-8.6036451,0.46075836,2.099075,-2.5727093,0.00023569915,-0.0010364398,-6.15716e-05,-0.08924225,0.09237713,-0.46580893,-0.5503269,0.0054122694,-0.00391737,-0.021185223,-1.9095734,-2.0597253,-0.83962435,-0.07026846,0.0086743,108.99439,1.672713,0.3242684,0.3068712,0.15812832,0.096937455,inf,inf,inf,inf,1,1,1,1,2,2,2,2,2,0,1,1,0,0,0
305268080,305266965,20740449,41.1790081,-8.6036451,0.45740074,2.102328,-2.6193442,0.00023569915,-0.0010364398,-6.15716e-05,-0.15752253,0.029840568,-0.4733302,-0.5500764,0.0054122694,-0.00391737,-0.021185223,2.2939348,-1.5660751,-3.1384299,0.18938082,0.48543033,108.99439,1.719348,0.33307412,0.31101862,0.15970883,0.09853681,inf,inf,inf,inf,1,1,1,1,2,2,2,2,3,0,1,1,0,0,0
305367923,305366915,20740449,41.1790081,-8.6036451,0.44733658,2.0981014,-2.6691692,0.00023569915,-0.0010364398,-6.15716e-05,-0.22714613,-0.045079503,-0.5346439,-0.6032638,0.0054122694,-0.00391737,-0.021185223,1.4582087,-2.885989,-1.0656881,-0.03295644,0.48543033,108.99439,1.7691729,0.32445198,0.30679035,0.15024726,0.09706505,inf,inf,inf,inf,1,1,1,1,2,2,2,2,3,0,1,1,0,0,0
305467936,305466864,20740449,41.1790081,-8.6036451,0.43188584,2.0895708,-2.726629,0.00023569915,-0.0010364398,-6.15716e-05,-0.298512,-0.08155091,-0.6355698,-0.69585776,0.0054122694,-0.00391737,-0.021185223,-1.9311637,-4.5724325,-1.1380103,-0.17611296,0.48543033,108.99439,1.8266327,0.332945,0.31094596,0.15471265,0.09871622,inf,inf,inf,inf,1,1,1,1,2,2,2,2,3,0,1,1,0,0,0
305567748,305566813,20740449,41.1790081,-8.6036451,0.40696207,2.0793815,-2.7935693,0.00023569915,-0.0010364398,-6.15716e-05,-0.3542502,-0.09315708,-0.6798426,-0.73463196,0.0054122694,-0.00391737,-0.021185223,-2.746826,2.003573,0.42566487,-0.26485118,0.48543033,108.99439,1.893573,0.32445675,0.30667618,0.14933105,0.09721625,inf,inf,inf,inf,1,1,1,1,2,2,2,2,3,0,1,1,0,0,0
305667758,305666763,20740449,41.1790081,-8.6036451,0.37257478,2.0717993,-2.861304,0.00023569915,-0.0010364398,-6.15716e-05,-0.3905171,-0.105762504,-0.68302196,-0.7319309,0.0054122694,-0.00391737,-0.021185223,-0.58636385,1.2436877,0.21277893,-0.32242537,0.48543033,108.99439,1.9613078,0.33259293,0.31083864,0.15681301,0.09882195,inf,inf,inf,inf,1,1,1,1,2,2,2,2,3,0,1,1,0,0,0
305767704,305766712,20740449,41.1790081,-8.6036451,0.3344583,2.0635352,-2.9300508,0.00023569915,-0.0010364398,-6.15716e-05,-0.3994795,-0.1248321,-0.68269455,-0.72718924,0.0054122694,-0.00391737,-0.021185223,2.0272276,-1.1019175,0.4124627,-0.36386734,0.48543033,108.99439,2.0300546,0.324274,0.3065616,0.15322262,0.09726278,inf,inf,inf,inf,1,1,1,1,2,2,2,2,3,0,1,1,0,0,0
305867719,305866663,20740449,41.1790081,-8.6036451,0.29263765,2.0577462,-2.9937947,0.00023569915,-0.0010364398,-6.15716e-05,-0.4285561,-0.15044989,-0.6526961,-0.69035846,0.0054122694,-0.00391737,-0.021185223,0.20926599,4.125789,1.1699617,-0.4435118,0.48543033,108.99439,2.0937984,0.3321152,0.3107289,0.16291153,0.09880274,inf,inf,inf,inf,1,1,1,1,2,2,2,2,3,0,1,1,0,0,0
305967609,305966611,20740449,41.1790081,-8.6036451,0.24696136,2.0502064,-3.0568397,0.00023569915,-0.0010364398,-6.15716e-05,-0.43044126,-0.18309012,-0.6812171,-0.7127511,0.0054122694,-0.00391737,-0.021185223,2.6720061,-0.744459,-4.5306716,-0.58382535,0.48543033,108.99439,2.1568434,0.3239489,0.3064868,0.16048539,0.09721897,inf,inf,inf,inf,1,1,1,1,2,2,2,2,3,0,1,1,0,0,0
306067678,306066560,20740449,41.1790081,-8.6036451,0.19670488,2.0473354,-3.124431,0.00023569915,-0.0010364398,-6.15716e-05,-0.4247969,-0.1743574,-0.7566891,-0.7822112,0.0054122694,-0.00391737,-0.021185223,1.4908423,-1.282836,-0.61843336,-0.7323848,0.48543033,108.99439,2.2244346,0.3316142,0.31064692,0.17235117,0.098731376,inf,inf,inf,inf,1,1,1,1,2,2,2,2,3,0,1,1,0,0,0
306167480,306166510,20740449,41.1790081,-8.6036451,0.14780697,2.0416076,-3.205805,0.00023569915,-0.0010364398,-6.15716e-05,-0.39470336,-0.1590418,-0.9255836,-0.9455335,0.0054122694,-0.00391737,-0.021185223,1.6273699,3.4570475,-0.28757718,-0.82168186,0.48543033,108.99439,2.3058088,0.3234863,0.3063679,0.16875021,0.09708288,inf,inf,inf,inf,1,1,1,1,2,2,2,2,3,0,1,1,0,0,0
306267473,306266459,20740449,41.1790081,-8.6036451,0.09271081,2.0321832,-3.296267,0.00023569915,-0.0010364398,-6.15716e-05,-0.38170514,-0.13823536,-0.9781943,-0.990532,0.0054122694,-0.00391737,-0.021185223,3.4870074,2.1776395,-0.2581729,-0.8766758,0.48543033,108.99439,2.3962708,0.3310668,0.3105261,0.1818366,0.09855463,inf,inf,inf,inf,1,1,1,1,2,2,2,2,3,1,1,1,0,0,0
306368117,306366409,20740449,41.1790081,-8.6036451,0.040638156,2.025794,-3.3879597,0.00023569915,-0.0010364398,-6.15716e-05,-0.3859901,-0.08476442,-0.937898,-0.9439886,0.0054122694,-0.00391737,-0.021185223,-2.2378166,-0.05647259,0.7535818,-0.9130923,0.48543033,108.99439,2.4879634,0.32294223,0.3062102,0.17621896,0.096867405,inf,inf,inf,inf,1,1,1,1,2,2,2,2,3,1,1,1,0,0,0
306467326,306466358,20740449,41.1790081,-8.6036451,-0.01727892,2.0271237,-3.4689708,0.00023569915,-0.0010364398,-6.15716e-05,-0.36360306,-0.045228746,-0.8926,-0.8877554,0.0054122694,-0.00391737,-0.021185223,-0.7555362,-1.5878645,0.7566385,-0.93859106,0.48543033,108.99439,2.5689745,0.33051497,0.31036243,0.18837763,0.09832683,inf,inf,inf,inf,1,1,1,1,2,2,2,2,3,1,1,1,0,0,0
306567496,306566311,20740449,41.1790081,-8.6036451,-0.067935795,2.0314593,-3.5491107,0.00023569915,-0.0010364398,-6.15716e-05,-0.32691106,-0.00041200727,-0.8794392,-0.86702406,0.0054122694,-0.00391737,-0.021185223,-1.0127631,-2.4225135,0.49147144,-0.9579141,0.48543033,108.99439,2.6491144,0.32243946,0.30605978,0.1811907,0.096668296,inf,inf,inf,inf,1,1,1,1,2,2,2,2,3,1,1,1,0,0,0
306667365,306666256,20740449,41.1790081,-8.6036451,-0.11035925,2.038054,-3.6236198,0.00023569915,-0.0010364398,-6.15716e-05,-0.26500884,0.053176746,-0.77538157,-0.75648725,0.0054122694,-0.00391737,-0.021185223,2.9317753,1.7193575,1.6830178,-0.9711645,0.48543033,108.99439,2.7236235,0.33009177,0.31020513,0.19415434,0.09814047,inf,inf,inf,inf,1,1,1,1,2,2,2,2,3,1,1,1,0,0,0
306767320,306766205,20740449,41.1790081,-8.6036451,-0.14936052,2.0434988,-3.6860387,0.00023569915,-0.0010364398,-6.15716e-05,-0.23851296,0.075663015,-0.5796573,-0.5568468,0.0054122694,-0.00391737,-0.021185223,0.9619522,0.035458833,3.2931485,-0.98428684,0.48543033,108.99439,2.7860425,0.3220106,0.3059154,0.18580586,0.09656599,inf,inf,inf,inf,1,1,1,1,2,2,2,2,3,1,1,1,0,0,0
306867475,306866155,20740449,41.1790081,-8.6036451,-0.18950582,2.0437462,-3.7242022,0.00023569915,-0.0010364398,-6.15716e-05,-0.19688822,0.08934399,-0.30325252,-0.27784064,0.0054122694,-0.00391737,-0.021185223,3.011133,2.0636585,1.1938123,-0.99753046,0.48543033,108.99439,2.8242059,0.32981145,0.31005636,0.19757383,0.0980876,inf,inf,inf,inf,1,1,1,1,2,2,2,2,3,1,1,1,0,0,0
306967989,306966104,20740449,41.1790081,-8.6036451,-0.22242768,2.0465,-3.7368073,0.00023569915,-0.0010364398,-6.15716e-05,-0.1706887,0.11296864,-0.028664794,-0.0035884925,0.0054122694,-0.00391737,-0.021185223,-1.7204357,2.12362,3.4140491,-1.0059022,0.48543033,108.99439,2.836811,0.32155645,0.30568954,0.18677008,0.09652423,inf,inf,inf,inf,1,1,1,1,2,2,2,2,3,1,1,1,0,0,0
307067251,307066056,20740449,41.1790081,-8.6036451,-0.24842034,2.0498726,-3.7379928,0.00023569915,-0.0010364398,-6.15716e-05,-0.10793998,0.11723868,0.10850664,0.12406031,0.0054122694,-0.00391737,-0.021185223,1.8279083,1.2514524,2.0708091,-1.0131998,0.48543033,108.99439,2.8379965,0.32947743,0.3098254,0.19786781,0.0980779,inf,inf,inf,inf,1,1,1,1,2,2,2,2,3,1,1,1,0,0,0
307167119,307166002,20740449,41.1790081,-8.6036451,-0.2664739,2.0550027,-3.730973,0.00023569915,-0.0010364398,-6.15716e-05,-0.065995425,0.14139548,0.1433774,0.14987937,0.0054122694,-0.00391737,-0.021185223,-3.162602,-1.085984,-0.57155293,-1.017758,0.48543033,108.99439,2.8309767,0.32116032,0.3054683,0.18790981,0.096570574,inf,inf,inf,inf,1,1,1,1,2,2,2,2,3,1,1,1,0,0,0
307267164,307265952,20740449,41.1790081,-8.6036451,-0.2794754,2.0574915,-3.7320938,0.00023569915,-0.0010364398,-6.15716e-05,0.006170722,0.1582062,0.09839255,0.09084076,0.0054122694,-0.00391737,-0.021185223,1.9583638,2.84997,1.3424444,-1.0194385,0.48543033,108.99439,2.8320975,0.32925764,0.30960363,0.20041631,0.09816459,inf,inf,inf,inf,1,1,1,1,2,2,2,2,3,1,1,1,0,0,0
307367021,307365901,20740449,41.1790081,-8.6036451,-0.28360638,2.0620983,-3.7375264,0.00023569915,-0.0010364398,-6.15716e-05,0.054818925,0.15246356,0.024389256,0.0070452644,0.0054122694,-0.00391737,-0.021185223,-1.2468178,-2.6730726,1.3728362,-1.0191431,0.48543033,108.99439,2.8375301,0.32077557,0.3052302,0.1904948,0.09667857,inf,inf,inf,inf,1,1,1,1,2,2,2,2,3,1,1,1,0,0,0
307466906,307465851,20740449,41.1790081,-8.6036451,-0.2809652,2.0644298,-3.7447674,0.00023569915,-0.0010364398,-6.15716e-05,0.11542379,0.1889957,-0.018660503,-0.043077238,0.0054122694,-0.00391737,-0.021185223,0.00093600305,1.3164544,-2.9241607,-1.0194731,0.48543033,108.99439,2.8447711,0.3290991,0.3093694,0.2030508,0.09829266,inf,inf,inf,inf,1,1,1,1,2,2,2,2,3,1,1,1,0,0,0
307566808,307565800,20740449,41.1790081,-8.6036451,-0.27091327,2.067426,-3.7591605,0.00023569915,-0.0010364398,-6.15716e-05,0.1723666,0.19119464,-0.147662,-0.17649013,0.0054122694,-0.00391737,-0.021185223,1.4969049,-0.023142513,-3.748805,-1.0156634,0.48543033,108.99439,2.8591642,0.32053354,0.305008,0.19215748,0.096827455,inf,inf,inf,inf,1,1,1,1,2,2,2,2,3,1,1,1,0,0,0
307666702,307665749,20740449,41.1790081,-8.6036451,-0.25423184,2.06599,-3.786168,0.00023569915,-0.0010364398,-6.15716e-05,0.22027758,0.18291359,-0.25873032,-0.2904529,0.0054122694,-0.00391737,-0.021185223,2.209452,1.2294883,0.94242686,-1.0138695,0.48543033,108.99439,2.8861718,0.32910073,0.30915555,0.20453079,0.098457016,inf,inf,inf,inf,1,1,1,1,2,2,2,2,3,1,1,1,0,0,0
307766860,307765699,20740449,41.1790081,-8.6036451,-0.23228195,2.0670443,-3.818472,0.00023569915,-0.0010364398,-6.15716e-05,0.24109861,0.18129495,-0.25849324,-0.29217616,0.0054122694,-0.00391737,-0.021185223,-1.1816263,-1.9756678,-0.55733204,-1.0111581,0.48543033,108.99439,2.9184756,0.32025346,0.3047462,0.19219215,0.09695801,inf,inf,inf,inf,1,1,1,1,2,2,2,2,3,1,1,1,0,0,0
307866664,307865648,20740449,41.1790081,-8.6036451,-0.20579597,2.0649915,-3.844768,0.00023569915,-0.0010364398,-6.15716e-05,0.26231152,0.19560365,-0.22903784,-0.26063728,0.0054122694,-0.00391737,-0.021185223,-0.06796324,2.1777062,-0.57035714,-1.0123073,0.48543033,108.99439,2.9447718,0.3290186,0.30889288,0.20251378,0.09858964,inf,inf,inf,inf,1,1,1,1,2,2,2,2,3,1,1,1,0,0,0
307967598,307965597,20740449,41.1790081,-8.6036451,-0.17558151,2.0644467,-3.871891,0.00023569915,-0.0010364398,-6.15716e-05,0.29011413,0.18319303,-0.21910144,-0.25024894,0.0054122694,-0.00391737,-0.021185223,2.0088205,2.6516836,2.8267624,-1.0126125,0.48543033,108.99439,2.9718947,0.3200993,0.3044928,0.18960373,0.0970987,inf,inf,inf,inf,1,1,1,1,2,2,2,2,3,1,1,1,0,0,0
308066618,308065547,20740449,41.1790081,-8.6036451,-0.14170328,2.06245,-3.8986979,0.00023569915,-0.0010364398,-6.15716e-05,0.28612846,0.1632197,-0.24503827,-0.2758551,0.0054122694,-0.00391737,-0.021185223,-0.6130284,-2.8533344,0.9144423,-1.0103478,0.48543033,108.99439,2.9987016,0.32902163,0.308651,0.19920506,0.09873477,inf,inf,inf,inf,1,1,1,1,2,2,2,2,3,1,1,1,0,0,0
308166673,308165496,20740449,41.1790081,-8.6036451,-0.10796156,2.0624142,-3.9276206,0.00023569915,-0.0010364398,-6.15716e-05,0.2812652,0.17752764,-0.2564194,-0.28855446,0.0054122694,-0.00391737,-0.021185223,-2.0548425,1.6210133,-1.1004509,-1.0073929,0.48543033,108.99439,3.0276244,0.31989563,0.3042206,0.18606968,0.09721186,inf,inf,inf,inf,1,1,1,1,2,2,2,2,3,1,1,1,0,0,0
308267357,308265446,20740449,41.1790081,-8.6036451,-0.07475879,2.057326,-3.9556572,0.00023569915,-0.0010364398,-6.15716e-05,0.29355147,0.17702077,-0.2400961,-0.27289206,0.0054122694,-0.00391737,-0.021185223,1.8038095,1.3311298,0.57383096,-1.007459,0.48543033,108.99439,3.055661,0.32892016,0.3083898,0.19497803,0.09884794,inf,inf,inf,inf,1,1,1,1,2,2,2,2,3,1,1,1,0,0,0
308366537,308365395,20740449,41.1790081,-8.6036451,-0.041444037,2.0558887,-3.9844074,0.00023569915,-0.0010364398,-6.15716e-05,0.26753047,0.17616977,-0.21224283,-0.24635617,0.0054122694,-0.00391737,-0.021185223,-3.2347398,-0.13898806,1.887472,-1.0053868,0.48543033,108.99439,3.0844111,0.31976417,0.30398425,0.1828737,0.0973342,inf,inf,inf,inf,1,1,1,1,2,2,2,2,3,1,1,1,0,0,0
308466490,308465344,20740449,41.1790081,-8.6036451,-0.005029883,2.0557528,-4.010664,0.00023569915,-0.0010364398,-6.15716e-05,0.29261476,0.18934599,-0.19413659,-0.2292675,0.0054122694,-0.00391737,-0.021185223,2.6218178,2.644983,0.4757703,-1.0038856,0.48543033,108.99439,3.1106677,0.328874,0.3081663,0.19093205,0.098979965,inf,inf,inf,inf,1,1,1,1,2,2,2,2,3,1,1,1,0,0,0
308567139,308565293,20740449,41.1790081,-8.6036451,0.030163623,2.059236,-4.0367956,0.00023569915,-0.0010364398,-6.15716e-05,0.26659134,0.19438441,-0.1986317,-0.23571752,0.0054122694,-0.00391737,-0.021185223,-3.6807694,0.61795646,-0.42792907,-1.0003066,0.48543033,108.99439,3.1367993,0.31963333,0.303755,0.17954502,0.09745776,inf,inf,inf,inf,1,1,1,1,2,2,2,2,3,1,1,1,0,0,0
308666380,308665243,20740449,41.1790081,-8.6036451,0.06490527,2.0636926,-4.062258,0.00023569915,-0.0010364398,-6.15716e-05,0.2553642,0.21728328,-0.20580918,-0.242787,0.0054122694,-0.00391737,-0.021185223,1.8677152,3.0407753,2.2959666,-0.9978277,0.48543033,108.99439,3.1622615,0.32879704,0.30795014,0.18742119,0.099106975,inf,inf,inf,inf,1,1,1,1,2,2,2,2,3,1,1,1,0,0,0
308766401,308765192,20740449,41.1790081,-8.6036451,0.098556794,2.074078,-4.088045,0.00023569915,-0.0010364398,-6.15716e-05,0.23150317,0.22661786,-0.23188809,-0.2690863,0.0054122694,-0.00391737,-0.021185223,-2.5903049,-1.0022284,-1.2392088,-0.9957067,0.48543033,108.99439,3.1880488,0.31951165,0.30353817,0.17658047,0.09757926,inf,inf,inf,inf,1,1,1,1,2,2,2,2,3,1,1,1,0,0,0
308866967,308865142,20740449,41.1790081,-8.6036451,0.13334613,2.087965,-4.1120276,0.00023569915,-0.0010364398,-6.15716e-05,0.23897947,0.23750879,-0.15487584,-0.19278182,0.0054122694,-0.00391737,-0.021185223,1.3018385,-0.5027516,1.6912198,-0.9957898,0.48543033,108.99439,3.2120314,0.32871273,0.3077467,0.18431024,0.09922736,inf,inf,inf,inf,1,1,1,1,2,2,2,2,3,1,1,1,0,0,0
308966226,308965091,20740449,41.1790081,-8.6036451,0.1659147,2.1049798,-4.1307535,0.00023569915,-0.0010364398,-6.15716e-05,0.20968635,0.24369435,-0.06091176,-0.10264995,0.0054122694,-0.00391737,-0.021185223,-2.3673275,-1.358011,1.5861514,-0.9999986,0.48543033,108.99439,3.2307572,0.31935668,0.30330503,0.17341249,0.097669035,inf,inf,inf,inf,1,1,1,1,2,2,2,2,3,1,1,1,0,0,0
309066186,309065040,20740449,41.1790081,-8.6036451,0.19917962,2.1202872,-4.139104,0.00023569915,-0.0010364398,-6.15716e-05,0.20884065,0.25691548,0.043291043,-0.0010015327,0.0054122694,-0.00391737,-0.021185223,-1.1253779,1.2289511,-0.5507101,-1.0021198,0.48543033,108.99439,3.2391076,0.3285476,0.30752546,0.18037584,0.099327885,inf,inf,inf,inf,1,1,1,1,2,2,2,2,3,1,1,1,0,0,0
309166370,309164989,20740449,41.1790081,-8.6036451,0.23017046,2.1389582,-4.136191,0.00023569915,-0.0010364398,-6.15716e-05,0.20976934,0.26741937,0.1262669,0.08057195,0.0054122694,-0.00391737,-0.021185223,1.8353473,2.793495,0.3905732,-1.0051355,0.48543033,108.99439,3.2361946,0.3192036,0.30307668,0.16996382,0.097766206,inf,inf,inf,inf,1,1,1,1,2,2,2,2,3,1,1,1,0,0,0
309266099,309264939,20740449,41.1790081,-8.6036451,0.2616267,2.1589074,-4.132438,0.00023569915,-0.0010364398,-6.15716e-05,0.18300056,0.25495183,0.048672177,0.0028448796,0.0054122694,-0.00391737,-0.021185223,-1.1555558,-0.021327002,-1.3232336,-1.0089434,0.48543033,108.99439,3.232442,0.32836816,0.3073092,0.17657223,0.09941242,inf,inf,inf,inf,1,1,1,1,2,2,2,2,3,1,1,1,0,0,0
309366125,309364888,20740449,41.1790081,-8.6036451,0.28918213,2.1808674,-4.132249,0.00023569915,-0.0010364398,-6.15716e-05,0.16400756,0.2264813,0.029064016,-0.016183034,0.0054122694,-0.00391737,-0.021185223,-0.7655241,-2.9546213,0.052265096,-1.0101537,0.48543033,108.99439,3.2322526,0.31899825,0.30285928,0.16716379,0.097846806,inf,inf,inf,inf,1,1,1,1,2,2,2,2,3,1,1,1,0,0,0
309466138,309464839,20740449,41.1790081,-8.6036451,0.3154313,2.2055533,-4.130258,0.00023569915,-0.0010364398,-6.15716e-05,0.13963564,0.23457558,0.015772348,-0.025873596,0.0054122694,-0.00391737,-0.021185223,1.4035268,2.5439847,-0.06272939,-1.0120058,0.48543033,108.99439,3.2302618,0.32815525,0.30710375,0.17363071,0.0994906,inf,inf,inf,inf,1,1,1,1,2,2,2,2,3,1,1,1,0,0,0
309565938,309564787,20740449,41.1790081,-8.6036451,0.33679348,2.2313294,-4.1307,0.00023569915,-0.0010364398,-6.15716e-05,0.09333736,0.22656491,-0.017905356,-0.05647949,0.0054122694,-0.00391737,-0.021185223,-3.2067425,-1.1505489,-1.8543149,-1.0127795,0.48543033,108.99439,3.2307038,0.3188006,0.30377993,0.16457199,0.09807383,inf,inf,inf,inf,1,1,1,1,2,2,2,2,3,1,1,1,0,0,0
309665798,309664737,20740449,41.1790081,-8.6036451,0.35547838,2.2593596,-4.131433,0.00023569915,-0.0010364398,-6.15716e-05,0.08707065,0.22008719,-0.03729196,-0.07109072,0.0054122694,-0.00391737,-0.021185223,1.6456385,1.0146301,-0.11244831,-1.011738,0.48543033,108.99439,3.2314367,0.3279405,0.30807474,0.17118795,0.099741526,inf,inf,inf,inf,1,1,1,1,2,2,2,2,3,1,1,1,0,0,0
309765855,309764686,20740449,41.1790081,-8.6036451,0.37041438,2.2871852,-4.1358676,0.00023569915,-0.0010364398,-6.15716e-05,0.062361386,0.20669052,-0.03740845,-0.06977524,0.0054122694,-0.00391737,-0.021185223,0.34345403,-0.6281939,-2.7644653,-1.0067989,0.48543033,108.99439,3.2358713,0.3186001,0.3035664,0.1622923,0.09813735,inf,inf,inf,inf,1,1,1,1,2,2,2,2,3,1,1,1,0,0,0
309865831,309864635,20740449,41.1790081,-8.6036451,0.38489905,2.317934,-4.1372313,0.00023569915,-0.0010364398,-6.15716e-05,0.040206492,0.16667156,-0.005368393,-0.034567613,0.0054122694,-0.00391737,-0.021185223,0.66711676,-3.4764774,0.081588805,-1.0054282,0.48543033,108.99439,3.237235,0.32771626,0.30787238,0.16843785,0.09979884,inf,inf,inf,inf,1,1,1,1,2,2,2,2,3,1,1,1,0,0,0
309965708,309964585,20740449,41.1790081,-8.6036451,0.3961238,2.3450303,-4.139356,0.00023569915,-0.0010364398,-6.15716e-05,0.031982172,0.1559794,-0.01718321,-0.04559825,0.0054122694,-0.00391737,-0.021185223,0.77232045,2.3495615,-1.0201432,-1.0055897,0.48543033,108.99439,3.2393599,0.31838378,0.30336133,0.15993589,0.09819496,inf,inf,inf,inf,1,1,1,1,2,2,2,2,3,1,1,1,0,0,0
310065724,310064534,20740449,41.1790081,-8.6036451,0.40590286,2.3717158,-4.144423,0.00023569915,-0.0010364398,-6.15716e-05,0.012894331,0.11670057,-0.10057582,-0.1255748,0.0054122694,-0.00391737,-0.021185223,1.8955927,1.1905843,-0.056524914,-1.0057237,0.48543033,108.99439,3.2444267,0.3274628,0.30767825,0.16576256,0.09985486,inf,inf,inf,inf,1,1,1,1,2,2,2,2,3,1,1,1,0,0,0
310165537,310164483,20740449,41.1790081,-8.6036451,0.41288096,2.394154,-4.154514,0.00023569915,-0.0010364398,-6.15716e-05,0.009303948,0.10903674,-0.12284563,-0.14314562,0.0054122694,-0.00391737,-0.021185223,0.8827594,3.9814024,1.9495703,-1.0032972,0.48543033,108.99439,3.2545176,0.31815073,0.30317014,0.15787932,0.098252386,inf,inf,inf,inf,1,1,1,1,2,2,2,2,3,1,1,1,0,0,0
310265429,310264433,20740449,41.1790081,-8.6036451,0.41723496,2.4186654,-4.1587133,0.00023569915,-0.0010364398,-6.15716e-05,-0.018564455,0.069060564,-0.13353762,-0.14378741,0.0054122694,-0.00391737,-0.021185223,-2.120711,-2.5778205,-3.1300564,-1.0031509,0.48543033,108.99439,3.258717,0.3272052,0.3074979,0.16354834,0.09990699,inf,inf,inf,inf,1,1,1,1,2,2,2,2,3,1,1,1,0,0,0
310375548,310374377,20740449,41.1790081,-8.6036451,0.4164692,2.4420319,-4.1620226,0.00023569915,-0.0010364398,-6.15716e-05,-0.04034366,0.0319149,-0.08899723,-0.090016946,0.0054122694,-0.00391737,-0.021185223,-0.061543673,-3.9528491,-0.67204034,-1.004731,0.48543033,108.99439,3.2620263,0.31885317,0.30254725,0.1564739,0.0983438,inf,inf,inf,inf,1,1,1,1,2,2,2,2,3,1,1,1,0,0,0
310465329,310464332,20740449,41.1790081,-8.6036451,0.41167447,2.4609368,-4.1623087,0.00023569915,-0.0010364398,-6.15716e-05,-0.06951944,0.024624545,-0.098888636,-0.09243946,0.0054122694,-0.00391737,-0.021185223,-2.9337204,0.19377115,-1.1622267,-1.0090268,0.48543033,108.99439,3.2623124,0.32700405,0.30735993,0.1616143,0.099981,inf,inf,inf,inf,1,1,1,1,2,2,2,2,3,1,1,1,0,0,0
310565290,310564281,20740449,41.1790081,-8.6036451,0.40334594,2.4764645,-4.1646795,0.00023569915,-0.0010364398,-6.15716e-05,-0.07296934,-0.010017871,-0.07308124,-0.061558917,0.0054122694,-0.00391737,-0.021185223,1.9370233,-1.3190947,1.5286777,-1.0103517,0.48543033,108.99439,3.2646832,0.3177277,0.3028518,0.15405966,0.09836741,inf,inf,inf,inf,1,1,1,1,2,2,2,2,3,1,1,1,0,0,0
310665345,310664230,20740449,41.1790081,-8.6036451,0.3907009,2.491103,-4.1652255,0.00023569915,-0.0010364398,-6.15716e-05,-0.07352936,-0.02649209,-0.09336761,-0.07628762,0.0054122694,-0.00391737,-0.021185223,-0.0046807686,0.15701827,-2.3890128,-1.0112808,0.48543033,108.99439,3.2652292,0.32670325,0.30720168,0.1593755,0.10002741,inf,inf,inf,inf,1,1,1,1,2,2,2,2,3,1,1,1,0,0,0
310765267,310764180,20740449,41.1790081,-8.6036451,0.377114,2.5008159,-4.1685143,0.00023569915,-0.0010364398,-6.15716e-05,-0.08742993,-0.07198689,-0.09505114,-0.07508469,0.0054122694,-0.00391737,-0.021185223,-2.0764892,-2.058221,-0.4501297,-1.0137748,0.48543033,108.99439,3.268518,0.31749046,0.3026937,0.15205286,0.09839683,inf,inf,inf,inf,1,1,1,1,2,2,2,2,3,1,1,1,0,0,0
310865431,310864129,20740449,41.1790081,-8.6036451,0.3602125,2.511157,-4.1724224,0.00023569915,-0.0010364398,-6.15716e-05,-0.08249497,-0.07093831,-0.07384922,-0.051295266,0.0054122694,-0.00391737,-0.021185223,2.695555,1.4334433,1.612142,-1.0181943,0.48543033,108.99439,3.2724261,0.32642117,0.30705342,0.15746193,0.100060515,inf,inf,inf,inf,1,1,1,1,2,2,2,2,3,1,1,1,0,0,0
310965143,310964078,20740449,41.1790081,-8.6036451,0.3446235,2.5169563,-4.1787233,0.00023569915,-0.0010364398,-6.15716e-05,-0.07384978,-0.09732582,-0.10988466,-0.086315855,0.0054122694,-0.00391737,-0.021185223,0.84797025,1.2089515,-2.4651127,-1.0192686,0.48543033,108.99439,3.278727,0.31724805,0.30254453,0.1501989,0.09842766,inf,inf,inf,inf,1,1,1,1,2,2,2,2,3,1,1,1,0,0,0
311075166,311074023,20740449,41.1790081,-8.6036451,0.3270012,2.523372,-4.185377,0.00023569915,-0.0010364398,-6.15716e-05,-0.087344974,-0.13336806,-0.12430174,-0.09819815,0.0054122694,-0.00391737,-0.021185223,-2.0749516,-2.4484222,0.123312324,-1.0194054,0.48543033,108.99439,3.2853808,0.32705823,0.30641776,0.15583245,0.10010309,inf,inf,inf,inf,1,1,1,1,2,2,2,2,3,1,1,1,0,0,0
311165046,311163977,20740449,41.1790081,-8.6036451,0.31276736,2.5236523,-4.1940126,0.00023569915,-0.0010364398,-6.15716e-05,-0.06736661,-0.15112545,-0.12167911,-0.09616995,0.0054122694,-0.00391737,-0.021185223,1.520971,1.2284883,0.49527124,-1.0215403,0.48543033,108.99439,3.2940164,0.31699738,0.3024033,0.14867388,0.098451175,inf,inf,inf,inf,1,1,1,1,2,2,2,2,3,1,1,1,0,0,0
311275202,311273922,20740449,41.1790081,-8.6036451,0.29057515,2.5223124,-4.2023125,0.00023569915,-0.0010364398,-6.15716e-05,-0.07428345,-0.17290205,-0.10217898,-0.07629141,0.0054122694,-0.00391737,-0.021185223,-0.6895674,-1.7347281,0.0883171,-1.023037,0.48543033,108.99439,3.3023162,0.32675746,0.30628747,0.1541316,0.10012828,inf,inf,inf,inf,1,1,1,1,2,2,2,2,3,1,1,1,0,0,0
311364987,311363876,20740449,41.1790081,-8.6036451,0.27451244,2.5183032,-4.209597,0.00023569915,-0.0010364398,-6.15716e-05,-0.0526043,-0.16567104,-0.121576175,-0.095968656,0.0054122694,-0.00391737,-0.021185223,1.3545976,1.9445268,1.3948486,-1.024786,0.48543033,108.99439,3.3096008,0.3167408,0.30226398,0.1470924,0.09846573,inf,inf,inf,inf,1,1,1,1,2,2,2,2,3,1,1,1,0,0,0
311464886,311463825,20740449,41.1790081,-8.6036451,0.2546745,2.5135589,-4.218862,0.00023569915,-0.0010364398,-6.15716e-05,-0.058353357,-0.16756791,-0.14944628,-0.123326376,0.0054122694,-0.00391737,-0.021185223,-3.1673996,-1.0335253,-1.5875462,-1.027657,0.48543033,108.99439,3.3188658,0.32553446,0.30664045,0.15185715,0.10011377,inf,inf,inf,inf,1,1,1,1,2,2,2,2,3,1,1,1,0,0,0
311564941,311563775,20740449,41.1790081,-8.6036451,0.23719648,2.50693,-4.2300167,0.00023569915,-0.0010364398,-6.15716e-05,-0.031604975,-0.16104794,-0.109837726,-0.085701466,0.0054122694,-0.00391737,-0.021185223,1.6236749,-0.7699277,-0.084289506,-1.0278997,0.48543033,108.99439,3.3300204,0.31647336,0.30211043,0.14550237,0.098473355,inf,inf,inf,inf,1,1,1,1,2,2,2,2,3,1,1,1,0,0,0
311664761,311663724,20740449,41.1790081,-8.6036451,0.2164848,2.5000646,-4.2352633,0.00023569915,-0.0010364398,-6.15716e-05,-0.016037432,-0.16333356,-0.056495283,-0.03326627,0.0054122694,-0.00391737,-0.021185223,0.5903157,1.6477767,1.289892,-1.0274035,0.48543033,108.99439,3.335267,0.3252202,0.30649468,0.15011376,0.10012224,inf,inf,inf,inf,1,1,1,1,2,2,2,2,3,1,1,1,0,0,0
311764710,311763674,20740449,41.1790081,-8.6036451,0.20079891,2.489739,-4.239131,0.00023569915,-0.0010364398,-6.15716e-05,-0.003483524,-0.19135988,-0.059592877,-0.03745842,0.0054122694,-0.00391737,-0.021185223,-1.7581205,-2.0058959,-2.4555187,-1.0285618,0.48543033,108.99439,3.3391347,0.31620708,0.30195695,0.14383365,0.09846409,inf,inf,inf,inf,1,1,1,1,2,2,2,2,3,1,1,1,0,0,0
311864657,311863626,20740449,41.1790081,-8.6036451,0.18514334,2.4782445,-4.243294,0.00023569915,-0.0010364398,-6.15716e-05,0.028795524,-0.20339744,-0.05298249,-0.031357843,0.0054122694,-0.00391737,-0.021185223,3.1969311,1.24366,1.7984556,-1.0293635,0.48543033,108.99439,3.3432975,0.3249006,0.30634812,0.14863326,0.10011044,inf,inf,inf,inf,1,1,1,1,2,2,2,2,3,1,1,1,0,0,0
311974522,311973567,20740449,41.1790081,-8.6036451,0.17153522,2.4612842,-4.2482867,0.00023569915,-0.0010364398,-6.15716e-05,0.04589286,-0.21915446,-0.07438768,-0.05283602,0.0054122694,-0.00391737,-0.021185223,1.3720132,1.8986113,1.0579027,-1.0295198,0.48543033,108.99439,3.3482904,0.31674373,0.30246112,0.1431708,0.09863593,inf,inf,inf,inf,1,1,1,1,2,2,2,2,3,1,1,1,0,0,0
312064695,312063522,20740449,41.1790081,-8.6036451,0.15894675,2.4450662,-4.255167,0.00023569915,-0.0010364398,-6.15716e-05,0.05413097,-0.21870638,-0.13180995,-0.1088737,0.0054122694,-0.00391737,-0.021185223,-1.6219069,-0.8101798,-3.1861756,-1.0298522,0.48543033,108.99439,3.3551707,0.32455245,0.30620039,0.14750604,0.10008041,inf,inf,inf,inf,1,1,1,1,2,2,2,2,3,1,1,1,0,0,0
312164553,312163472,20740449,41.1790081,-8.6036451,0.14948192,2.4260921,-4.2688494,0.00023569915,-0.0010364398,-6.15716e-05,0.08394744,-0.22133924,-0.17856665,-0.15591674,0.0054122694,-0.00391737,-0.021185223,0.07070428,-1.5921744,0.109111056,-1.024782,0.48543033,108.99439,3.368853,0.31557006,0.30164737,0.14175569,0.09841451,inf,inf,inf,inf,1,1,1,1,2,2,2,2,3,1,1,1,0,0,0
312264475,312263420,20740449,41.1790081,-8.6036451,0.141329,2.4073062,-4.288407,0.00023569915,-0.0010364398,-6.15716e-05,0.097109415,-0.22232717,-0.2864068,-0.26288962,0.0054122694,-0.00391737,-0.021185223,-1.7571197,-1.5187985,-2.8520052,-1.0192505,0.48543033,108.99439,3.3884106,0.3241807,0.3060509,0.14652452,0.10004602,inf,inf,inf,inf,1,1,1,1,2,2,2,2,3,1,1,1,0,0,0
312364451,312363370,20740449,41.1790081,-8.6036451,0.13837497,2.3866045,-4.3219185,0.00023569915,-0.0010364398,-6.15716e-05,0.12230919,-0.22891232,-0.43520725,-0.41175708,0.0054122694,-0.00391737,-0.021185223,3.1617565,2.281746,-0.82554877,-1.0155237,0.48543033,108.99439,3.4219222,0.31523484,0.30148384,0.141092,0.09837528,inf,inf,inf,inf,1,1,1,1,2,2,2,2,3,1,1,1,0,0,0
312474438,312473319,20740449,41.1790081,-8.6036451,0.1364769,2.3619876,-4.376559,0.00023569915,-0.0010364398,-6.15716e-05,0.15002862,-0.22782572,-0.6238751,-0.5980424,0.0054122694,-0.00391737,-0.021185223,2.1254995,3.467771,1.6151984,-1.0115327,0.48543033,108.99439,3.4765625,0.324706,0.30657047,0.14664617,0.10020138,inf,inf,inf,inf,1,1,1,1,2,2,2,2,3,1,1,1,0,0,0
312564247,312563268,20740449,41.1790081,-8.6036451,0.14004265,2.341393,-4.4353065,0.00023569915,-0.0010364398,-6.15716e-05,0.16680348,-0.22719717,-0.705935,-0.6794002,0.0054122694,-0.00391737,-0.021185223,0.02326182,2.597555,2.7904391,-1.011783,0.48543033,108.99439,3.5353103,0.31489408,0.30132547,0.1410032,0.09832863,inf,inf,inf,inf,1,1,1,1,2,2,2,2,3,1,1,1,0,0,0
312674414,312673213,20740449,41.1790081,-8.6036451,0.1476454,2.3181682,-4.502092,0.00023569915,-0.0010364398,-6.15716e-05,0.18936796,-0.2129075,-0.68170446,-0.6478843,0.0054122694,-0.00391737,-0.021185223,1.2191994,2.9338326,0.98239046,-1.0132538,0.48543033,108.99439,3.6020956,0.32434407,0.3064169,0.14624105,0.100148164,inf,inf,inf,inf,1,1,1,1,2,2,2,2,3,1,1,1,0,0,0
312764243,312763167,20740449,41.1790081,-8.6036451,0.15700297,2.2991476,-4.5545006,0.00023569915,-0.0010364398,-6.15716e-05,0.22745855,-0.20508225,-0.61139923,-0.5747732,0.0054122694,-0.00391737,-0.021185223,2.2499223,1.2736226,1.9588735,-1.0143052,0.48543033,108.99439,3.6545043,0.314604,0.30116433,0.14020142,0.09828175,inf,inf,inf,inf,1,1,1,1,2,2,2,2,3,1,1,1,0,0,0
312874245,312873112,20740449,41.1790081,-8.6036451,0.16618794,2.2753658,-4.6022196,0.00023569915,-0.0010364398,-6.15716e-05,0.23510905,-0.21599098,-0.4314541,-0.38977596,0.0054122694,-0.00391737,-0.021185223,0.3391438,-1.7299086,0.9709895,-1.0204854,0.48543033,108.99439,3.7022233,0.32400614,0.3062601,0.14503492,0.10009906,inf,inf,inf,inf,1,1,1,1,2,2,2,2,3,1,1,1,0,0,0
312964902,312963070,20740449,41.1790081,-8.6036451,0.1774688,2.2554135,-4.624934,0.00023569915,-0.0010364398,-6.15716e-05,0.23144314,-0.21247607,-0.24471639,-0.20062605,0.0054122694,-0.00391737,-0.021185223,-1.9618062,0.4542867,1.5135926,-1.0278612,0.48543033,108.99439,3.724938,0.31427845,0.30097777,0.13877077,0.09820404,inf,inf,inf,inf,1,1,1,1,2,2,2,2,3,1,1,1,0,0,0
313064090,313063015,20740449,41.1790081,-8.6036451,0.18809146,2.2286007,-4.6357574,0.00023569915,-0.0010364398,-6.15716e-05,0.22555396,-0.20077528,-0.09222205,-0.04741921,0.0054122694,-0.00391737,-0.021185223,0.87225944,2.7007442,3.0702372,-1.0322517,0.48543033,108.99439,3.7357612,0.32273072,0.30539834,0.14277382,0.09984415,inf,inf,inf,inf,1,1,1,1,2,2,2,2,3,1,1,1,0,0,0
313164138,313162965,20740449,41.1790081,-8.6036451,0.20016177,2.2008626,-4.6391387,0.00023569915,-0.0010364398,-6.15716e-05,0.217124,-0.21254063,-0.069949195,-0.027032522,0.0054122694,-0.00391737,-0.021185223,-3.2875414,0.7977119,-1.0151016,-1.0330075,0.48543033,108.99439,3.7391424,0.31402913,0.3008161,0.13727596,0.09817155,inf,inf,inf,inf,1,1,1,1,2,2,2,2,3,1,1,1,0,0,0
313264067,313262914,20740449,41.1790081,-8.6036451,0.20812882,2.1682253,-4.6526594,0.00023569915,-0.0010364398,-6.15716e-05,0.20548029,-0.20544893,-0.11339262,-0.07924592,0.0054122694,-0.00391737,-0.021185223,2.5007205,1.6463772,0.88192165,-1.0303786,0.48543033,108.99439,3.7526631,0.32242996,0.30523053,0.141744,0.099790804,inf,inf,inf,inf,1,1,1,1,2,2,2,2,3,1,1,1,0,0,0
313373922,313372859,20740449,41.1790081,-8.6036451,0.21955705,2.1369054,-4.679845,0.00023569915,-0.0010364398,-6.15716e-05,0.19323528,-0.17642176,-0.19103065,-0.16939738,0.0054122694,-0.00391737,-0.021185223,1.4093093,3.7130475,2.7718415,-1.0248646,0.48543033,108.99439,3.7798486,0.3145839,0.30130783,0.137353,0.0982973,inf,inf,inf,inf,1,1,1,1,2,2,2,2,3,1,1,1,0,0,0
313463903,313462813,20740449,41.1790081,-8.6036451,0.22994919,2.1149013,-4.709001,0.00023569915,-0.0010364398,-6.15716e-05,0.17038155,-0.1570507,-0.23579566,-0.22525395,0.0054122694,-0.00391737,-0.021185223,-2.5359309,-0.52529615,1.0534215,-1.014366,0.48543033,108.99439,3.8090048,0.3221504,0.30506638,0.14157574,0.09972922,inf,inf,inf,inf,1,1,1,1,2,2,2,2,3,1,1,1,0,0,0
313573920,313572757,20740449,41.1790081,-8.6036451,0.24235974,2.0923476,-4.7499523,0.00023569915,-0.0010364398,-6.15716e-05,0.15279995,-0.11474925,-0.24883556,-0.25245115,0.0054122694,-0.00391737,-0.021185223,0.78337044,1.1670487,1.1343222,-1.0038569,0.48543033,108.99439,3.849956,0.3143434,0.30113697,0.13716117,0.098246984,inf,inf,inf,inf,1,1,1,1,2,2,2,2,3,1,1,1,0,0,0
313663884,313662715,20740449,41.1790081,-8.6036451,0.25121218,2.0758402,-4.782231,0.00023569915,-0.0010364398,-6.15716e-05,0.13710539,-0.087800615,-0.22735357,-0.24134006,0.0054122694,-0.00391737,-0.021185223,-1.2671779,1.4051747,-3.0073948,-0.99879104,0.48543033,108.99439,3.8822346,0.3218912,0.30489838,0.14118865,0.09966731,inf,inf,inf,inf,1,1,1,1,2,2,2,2,3,1,1,1,0,0,0
313773693,313772656,20740449,41.1790081,-8.6036451,0.2636854,2.057484,-4.81905,0.00023569915,-0.0010364398,-6.15716e-05,0.12519756,-0.077277884,-0.22774191,-0.25194883,0.0054122694,-0.00391737,-0.021185223,-1.9331394,-0.70011216,-3.154949,-0.99472255,0.48543033,108.99439,3.9190536,0.31413004,0.30096918,0.13665366,0.09819937,inf,inf,inf,inf,1,1,1,1,2,2,2,2,3,1,1,1,0,0,0
313873736,313872606,20740449,41.1790081,-8.6036451,0.27773514,2.0380805,-4.851558,0.00023569915,-0.0010364398,-6.15716e-05,0.13460705,-0.08619177,-0.24081141,-0.27040336,0.0054122694,-0.00391737,-0.021185223,0.94129723,-2.8411193,-0.252058,-0.98983616,0.48543033,108.99439,3.951562,0.32251525,0.3054114,0.14120065,0.099829204,inf,inf,inf,inf,1,1,1,1,2,2,2,2,3,1,1,1,0,0,0
313964516,313962560,20740449,41.1790081,-8.6036451,0.29039922,2.0249238,-4.8809557,0.00023569915,-0.0010364398,-6.15716e-05,0.123795554,-0.0533565,-0.24237458,-0.2769368,0.0054122694,-0.00391737,-0.021185223,-0.5651524,1.6969938,2.6548438,-0.98857605,0.48543033,108.99439,3.9809594,0.31305006,0.30011675,0.13585241,0.09793818,inf,inf,inf,inf,1,1,1,1,2,2,2,2,3,1,1,1,0,0,0
314073612,314072504,20740449,41.1790081,-8.6036451,0.30164224,2.0129797,-4.9156837,0.00023569915,-0.0010364398,-6.15716e-05,0.110375844,-0.03487551,-0.20847064,-0.24854809,0.0054122694,-0.00391737,-0.021185223,4.566317,4.3790894,-1.2079997,-0.98591447,0.48543033,108.99439,4.0156875,0.32221532,0.30521843,0.14081343,0.099748015,inf,inf,inf,inf,1,1,1,1,2,2,2,2,3,1,1,1,0,0,0
314163442,314162459,20740449,41.1790081,-8.6036451,0.3104525,2.0068038,-4.941256,0.00023569915,-0.0010364398,-6.15716e-05,0.08655625,-0.0036080373,-0.16176236,-0.20653103,0.0054122694,-0.00391737,-0.021185223,0.51851195,-1.7038792,-0.71321213,-0.98794687,0.48543033,108.99439,4.04126,0.31286687,0.29996336,0.13556464,0.09788891,inf,inf,inf,inf,1,1,1,1,2,2,2,2,3,1,1,1,0,0,0
314273356,314272403,20740449,41.1790081,-8.6036451,0.3220729,2.0005195,-4.963635,0.00023569915,-0.0010364398,-6.15716e-05,0.07644491,0.011692247,-0.106493585,-0.15359546,0.0054122694,-0.00391737,-0.021185223,2.0217283,2.0735486,-1.9356507,-0.9908445,0.48543033,108.99439,4.0636387,0.32200757,0.30506763,0.14044267,0.09971282,inf,inf,inf,inf,1,1,1,1,2,2,2,2,3,1,1,1,0,0,0
314363343,314362358,20740449,41.1790081,-8.6036451,0.3310057,1.9982104,-4.977608,0.00023569915,-0.0010364398,-6.15716e-05,0.054529127,0.022937978,-0.061338782,-0.11050323,0.0054122694,-0.00391737,-0.021185223,-2.3920631,-1.7284781,1.3533021,-0.9903015,0.48543033,108.99439,4.077612,0.3126969,0.29981184,0.13507266,0.09785064,inf,inf,inf,inf,1,1,1,1,2,2,2,2,3,1,1,1,0,0,0
314473403,314472302,20740449,41.1790081,-8.6036451,0.34261164,1.9988235,-4.992787,0.00023569915,-0.0010364398,-6.15716e-05,0.0524828,0.056230985,-0.03683952,-0.09015311,0.0054122694,-0.00391737,-0.021185223,0.46249026,-2.6589322,-2.1740284,-0.98947746,0.48543033,108.99439,4.0927906,0.32181165,0.30491894,0.14004436,0.099666506,inf,inf,inf,inf,1,1,1,1,2,2,2,2,3,1,1,1,0,0,0
314573277,314572251,20740449,41.1790081,-8.6036451,0.35284838,2.0021415,-5.0063095,0.00023569915,-0.0010364398,-6.15716e-05,0.050400577,0.07495319,-0.026783848,-0.08420143,0.0054122694,-0.00391737,-0.021185223,2.1029801,1.2352012,0.6671445,-0.99154615,0.48543033,108.99439,4.106313,0.31336042,0.30032727,0.13533148,0.098000966,inf,inf,inf,inf,1,1,1,1,2,2,2,2,3,1,1,1,0,0,0
314673206,314672200,20740449,41.1790081,-8.6036451,0.3639962,2.0058813,-5.016443,0.00023569915,-0.0010364398,-6.15716e-05,0.057397146,0.07585016,0.0022457177,-0.058357365,0.0054122694,-0.00391737,-0.021185223,0.6632277,0.61557454,1.1210932,-0.99054855,0.48543033,108.99439,4.1164465,0.32165667,0.30477878,0.13984556,0.09962091,inf,inf,inf,inf,1,1,1,1,2,2,2,2,3,1,1,1,0,0,0
314773291,314772150,20740449,41.1790081,-8.6036451,0.3751804,2.010504,-5.023123,0.00023569915,-0.0010364398,-6.15716e-05,0.050132383,0.06639257,0.037895605,-0.024979804,0.0054122694,-0.00391737,-0.021185223,-2.2119625,-0.6590655,0.57629645,-0.99020463,0.48543033,108.99439,4.1231265,0.3132282,0.3001921,0.1351725,0.09795405,inf,inf,inf,inf,1,1,1,1,2,2,2,2,3,1,1,1,0,0,0
314873244,314872103,20740449,41.1790081,-8.6036451,0.38760048,2.014569,-5.024183,0.00023569915,-0.0010364398,-6.15716e-05,0.06174827,0.0763214,0.050507545,-0.010922194,0.0054122694,-0.00391737,-0.021185223,2.1020236,1.529323,1.1064171,-0.9911558,0.48543033,108.99439,4.1241865,0.32151195,0.30464584,0.13956752,0.09957112,inf,inf,inf,inf,1,1,1,1,2,2,2,2,3,1,1,1,0,0,0
314973209,314972049,20740449,41.1790081,-8.6036451,0.3987757,2.0183058,-5.022364,0.00023569915,-0.0010364398,-6.15716e-05,0.044752866,0.05348384,0.0465465,-0.011296448,0.0054122694,-0.00391737,-0.021185223,-1.3005044,1.623916,1.3127836,-0.9911451,0.48543033,108.99439,4.122368,0.31312677,0.30005455,0.13500915,0.0978988,inf,inf,inf,inf,1,1,1,1,2,2,2,2,3,1,1,1,0,0,0
315063195,315062003,20740449,41.1790081,-8.6036451,0.40862933,2.0213242,-5.0188513,0.00023569915,-0.0010364398,-6.15716e-05,0.040175993,0.035450153,0.05239863,-0.0005168884,0.0054122694,-0.00391737,-0.021185223,-1.2399504,-4.0627317,0.6597804,-0.99170697,0.48543033,108.99439,4.118855,0.32055327,0.30382317,0.13910218,0.099319994,inf,inf,inf,inf,1,1,1,1,2,2,2,2,3,1,1,1,0,0,0
315173081,315171947,20740449,41.1790081,-8.6036451,0.41898787,2.0261984,-5.015129,0.00023569915,-0.0010364398,-6.15716e-05,0.019055841,0.041794423,0.03198681,-0.015261756,0.0054122694,-0.00391737,-0.021185223,1.3980173,-0.04697398,-0.037717395,-0.99605525,0.48543033,108.99439,4.115133,0.31303138,0.29990736,0.13500743,0.097844,inf,inf,inf,inf,1,1,1,1,2,2,2,2,3,1,1,1,0,0,0
315272957,315271897,20740449,41.1790081,-8.6036451,0.4285409,2.0328195,-5.011433,0.00023569915,-0.0010364398,-6.15716e-05,0.020662552,0.029100113,0.012409414,-0.028622782,0.0054122694,-0.00391737,-0.021185223,0.73749864,1.1402986,2.914391,-0.9993698,0.48543033,108.99439,4.111437,0.3213067,0.3043539,0.13963932,0.09945214,inf,inf,inf,inf,1,1,1,1,2,2,2,2,3,1,1,1,0,0,0
315372973,315371846,20740449,41.1790081,-8.6036451,0.43643686,2.0396192,-5.006221,0.00023569915,-0.0010364398,-6.15716e-05,0.00060851546,0.021567041,0.0016382283,-0.031172967,0.0054122694,-0.00391737,-0.021185223,-2.0168202,-1.3434926,-1.3927032,-1.0019475,0.48543033,108.99439,4.1062245,0.3130087,0.299797,0.1352576,0.09780309,inf,inf,inf,inf,1,1,1,1,2,2,2,2,3,1,1,1,0,0,0
315472890,315471797,20740449,41.1790081,-8.6036451,0.443364,2.0464368,-4.9983807,0.00023569915,-0.0010364398,-6.15716e-05,-0.008169641,0.011733124,0.022221854,-0.0006918303,0.0054122694,-0.00391737,-0.021185223,0.26985168,0.62554586,2.6846786,-1.0104046,0.48543033,108.99439,4.0983844,0.3212926,0.30424613,0.13988985,0.09941313,inf,inf,inf,inf,1,1,1,1,2,2,2,2,3,1,1,1,0,0,0
315572855,315571745,20740449,41.1790081,-8.6036451,0.44877103,2.0516682,-4.986209,0.00023569915,-0.0010364398,-6.15716e-05,-0.012644253,-0.0042715203,0.049847353,0.03724989,0.0054122694,-0.00391737,-0.021185223,-2.2382927,-0.41296473,0.12440502,-1.0214235,0.48543033,108.99439,4.0862126,0.31290346,0.2996546,0.1353006,0.09774737,inf,inf,inf,inf,1,1,1,1,2,2,2,2,3,1,1,1,0,0,0
315672848,315671694,20740449,41.1790081,-8.6036451,0.45379317,2.0565844,-4.9683022,0.00023569915,-0.0010364398,-6.15716e-05,-0.02610087,-0.0038503748,0.077235356,0.07650684,0.0054122694,-0.00391737,-0.021185223,-3.3010764,0.8712795,-0.9849207,-1.0322342,0.48543033,108.99439,4.068306,0.32118386,0.3041043,0.13980295,0.09935123,inf,inf,inf,inf,1,1,1,1,2,2,2,2,3,1,1,1,0,0,0
315762660,315761649,20740449,41.1790081,-8.6036451,0.4568077,2.058636,-4.951862,0.00023569915,-0.0010364398,-6.15716e-05,-0.025774932,-0.052000705,0.066857144,0.0759982,0.0054122694,-0.00391737,-0.021185223,-1.7923391,-1.398897,-0.49309203,-1.0408193,0.48543033,108.99439,4.0518656,0.31201112,0.2988608,0.13476299,0.09749469,inf,inf,inf,inf,1,1,1,1,2,2,2,2,3,1,1,1,0,0,0
315872690,315871593,20740449,41.1790081,-8.6036451,0.46121323,2.0612643,-4.930562,0.00023569915,-0.0010364398,-6.15716e-05,-0.03825832,-0.067840524,0.05233799,0.07413846,0.0054122694,-0.00391737,-0.021185223,-3.2220054,-3.442433,-0.024834672,-1.0511259,0.48543033,108.99439,4.0305657,0.32109174,0.30396846,0.13986003,0.09928361,inf,inf,inf,inf,1,1,1,1,2,2,2,2,3,1,1,1,0,0,0
315972622,315971542,20740449,41.1790081,-8.6036451,0.4634108,2.061072,-4.9135327,0.00023569915,-0.0010364398,-6.15716e-05,-0.0329751,-0.07829874,0.044588014,0.07581378,0.0054122694,-0.00391737,-0.021185223,-1.8929453,-2.2892642,-1.3869121,-1.0563596,0.48543033,108.99439,4.0135365,0.3127246,0.29938713,0.13548306,0.097631045,inf,inf,inf,inf,1,1,1,1,2,2,2,2,3,1,1,1,0,0,0
316072554,316071492,20740449,41.1790081,-8.6036451,0.46388546,2.0610557,-4.896751,0.00023569915,-0.0010364398,-6.15716e-05,-0.0512717,-0.10624316,0.039193377,0.07957659,0.0054122694,-0.00391737,-0.021185223,-1.4170432,-2.8195393,1.0396413,-1.0603181,0.48543033,108.99439,3.9967546,0.32101113,0.30383736,0.14016175,0.09922294,inf,inf,inf,inf,1,1,1,1,2,2,2,2,3,1,1,1,0,0,0
316172479,316171441,20740449,41.1790081,-8.6036451,0.463526,2.058757,-4.881124,0.00023569915,-0.0010364398,-6.15716e-05,-0.050884005,-0.10451614,0.009856104,0.05832422,0.0054122694,-0.00391737,-0.021185223,-0.44884482,-2.9338875,-0.3776537,-1.0639,0.48543033,108.99439,3.9811277,0.31262615,0.29924622,0.13570087,0.09756768,inf,inf,inf,inf,1,1,1,1,2,2,2,2,3,1,1,1,0,0,0
316272460,316271390,20740449,41.1790081,-8.6036451,0.46400726,2.056244,-4.866725,0.00023569915,-0.0010364398,-6.15716e-05,-0.03748968,-0.094278395,-0.0127824275,0.0441789,0.0054122694,-0.00391737,-0.021185223,-0.03806907,-0.76151264,0.18354411,-1.0649481,0.48543033,108.99439,3.9667287,0.3209197,0.3036963,0.14048396,0.0991604,inf,inf,inf,inf,1,1,1,1,2,2,2,2,3,1,1,1,0,0,0
316372374,316371340,20740449,41.1790081,-8.6036451,0.46357873,2.0525029,-4.855635,0.00023569915,-0.0010364398,-6.15716e-05,-0.019858094,-0.08539288,-0.025942758,0.037891008,0.0054122694,-0.00391737,-0.021185223,2.5427768,1.0621533,1.0678618,-1.0627183,0.48543033,108.99439,3.955639,0.31252018,0.29911062,0.1360275,0.097495146,inf,inf,inf,inf,1,1,1,1,2,2,2,2,3,1,1,1,0,0,0
316472317,316471291,20740449,41.1790081,-8.6036451,0.46161747,2.0497832,-4.845783,0.00023569915,-0.0010364398,-6.15716e-05,-0.022537649,-0.08841106,-0.021612683,0.04864215,0.0054122694,-0.00391737,-0.021185223,2.8791478,2.630201,1.8500043,-1.0579597,0.48543033,108.99439,3.945787,0.32082546,0.30356044,0.1407501,0.099079415,inf,inf,inf,inf,1,1,1,1,2,2,2,2,3,1,1,1,0,0,0
316572189,316571239,20740449,41.1790081,-8.6036451,0.45977688,2.0467448,-4.8393445,0.00023569915,-0.0010364398,-6.15716e-05,-0.05013394,-0.087973095,-0.091517545,-0.015876718,0.0054122694,-0.00391737,-0.021185223,0.20509228,-2.7232413,0.56455874,-1.0551487,0.48543033,108.99439,3.9393482,0.31240514,0.29897222,0.13615084,0.09742034,inf,inf,inf,inf,1,1,1,1,2,2,2,2,3,1,1,1,0,0,0
316672334,316671191,20740449,41.1790081,-8.6036451,0.457827,2.0447848,-4.831941,0.00023569915,-0.0010364398,-6.15716e-05,-0.03352413,-0.055685285,-0.095737584,-0.012839394,0.0054122694,-0.00391737,-0.021185223,1.6645453,-1.0694797,-2.289271,-1.0523708,0.48543033,108.99439,3.9319448,0.32072043,0.30342144,0.14114247,0.09902224,inf,inf,inf,inf,1,1,1,1,2,2,2,2,3,1,1,1,0,0,0
316772213,316771137,20740449,41.1790081,-8.6036451,0.45337445,2.043455,-4.8269496,0.00023569915,-0.0010364398,-6.15716e-05,-0.06850769,-0.068857886,-0.08994017,-0.0021170264,0.0054122694,-0.00391737,-0.021185223,-0.93562424,-2.2355096,0.77687246,-1.0506071,0.48543033,108.99439,3.9269533,0.31228915,0.29882196,0.13652983,0.097352415,inf,inf,inf,inf,1,1,1,1,2,2,2,2,3,1,1,1,0,0,0
316872199,316871087,20740449,41.1790081,-8.6036451,0.4471689,2.0438378,-4.81772,0.00023569915,-0.0010364398,-6.15716e-05,-0.07642889,-0.029160097,-0.061131928,0.033461425,0.0054122694,-0.00391737,-0.021185223,-3.242794,-1.1888036,0.39114118,-1.0491621,0.48543033,108.99439,3.9177237,0.320614,0.30326122,0.14122862,0.09895931,inf,inf,inf,inf,1,1,1,1,2,2,2,2,3,1,1,1,0,0,0
316972243,316971036,20740449,41.1790081,-8.6036451,0.4402342,2.0453386,-4.806705,0.00023569915,-0.0010364398,-6.15716e-05,-0.06685429,-0.0030022345,-0.0620511,0.038978472,0.0054122694,-0.00391737,-0.021185223,-0.5175171,1.8513353,-2.504379,-1.0453947,0.48543033,108.99439,3.9067087,0.31216767,0.29866123,0.1364843,0.09730519,inf,inf,inf,inf,1,1,1,1,2,2,2,2,3,1,1,1,0,0,0
317072124,317070985,20740449,41.1790081,-8.6036451,0.4340558,2.0476465,-4.796171,0.00023569915,-0.0010364398,-6.15716e-05,-0.06025101,-0.0013999362,-0.07069779,0.036419168,0.0054122694,-0.00391737,-0.021185223,1.0632516,-1.1372887,1.9065442,-1.0410099,0.48543033,108.99439,3.896175,0.32049522,0.30310062,0.14117245,0.09888972,inf,inf,inf,inf,1,1,1,1,2,2,2,2,3,1,1,1,0,0,0
317172086,317170935,20740449,41.1790081,-8.6036451,0.4284993,2.0506628,-4.7885528,0.00023569915,-0.0010364398,-6.15716e-05,-0.06299771,0.017998492,-0.08118549,0.030002043,0.0054122694,-0.00391737,-0.021185223,-1.6158438,1.5910981,1.297416,-1.0369568,0.48543033,108.99439,3.8885565,0.3120344,0.29849347,0.13654813,0.09723801,inf,inf,inf,inf,1,1,1,1,2,2,2,2,3,1,1,1,0,0,0
317272044,317270884,20740449,41.1790081,-8.6036451,0.42383748,2.0541224,-4.781662,0.00023569915,-0.0010364398,-6.15716e-05,-0.03251409,0.026331952,-0.09804916,0.017630184,0.0054122694,-0.00391737,-0.021185223,2.6363335,2.9946868,0.9220181,-1.0313009,0.48543033,108.99439,3.8816657,0.3203692,0.3029325,0.14127998,0.09882708,inf,inf,inf,inf,1,1,1,1,2,2,2,2,3,1,1,1,0,0,0
317371804,317370833,20740449,41.1790081,-8.6036451,0.4203279,2.0564075,-4.7773657,0.00023569915,-0.0010364398,-6.15716e-05,-0.04049601,0.019961063,-0.10605593,0.0123823555,0.0054122694,-0.00391737,-0.021185223,0.35028994,0.72372705,1.3167608,-1.0312678,0.48543033,108.99439,3.8773694,0.31189644,0.2983252,0.13664958,0.09716344,inf,inf,inf,inf,1,1,1,1,2,2,2,2,3,1,1,1,0,0,0
317471870,317470782,20740449,41.1790081,-8.6036451,0.41796774,2.0571446,-4.773059,0.00023569915,-0.0010364398,-6.15716e-05,-0.045400795,0.0071922992,-0.13906124,-0.017608792,0.0054122694,-0.00391737,-0.021185223,0.26557055,-2.9031959,-2.113975,-1.0329391,0.48543033,108.99439,3.8730626,0.32023865,0.30276376,0.14135851,0.09875226,inf,inf,inf,inf,1,1,1,1,2,2,2,2,3,1,1,1,0,0,0
317571928,317570732,20740449,41.1790081,-8.6036451,0.41559243,2.057887,-4.7720003,0.00023569915,-0.0010364398,-6.15716e-05,-0.03747498,0.0022265397,-0.14242333,-0.019403622,0.0054122694,-0.00391737,-0.021185223,-2.3572028,-1.4026048,-0.3369973,-1.0339174,0.48543033,108.99439,3.872004,0.31175956,0.29815727,0.13680832,0.09710883,inf,inf,inf,inf,1,1,1,1,2,2,2,2,3,1,1,1,0,0,0
317671749,317670681,20740449,41.1790081,-8.6036451,0.4130307,2.059114,-4.773754,0.00023569915,-0.0010364398,-6.15716e-05,-0.05512195,0.02572147,-0.14892678,-0.02602948,0.0054122694,-0.00391737,-0.021185223,-2.3568437,1.969579,-3.3913949,-1.035952,0.48543033,108.99439,3.8737578,0.3201103,0.30259597,0.14149445,0.09869293,inf,inf,inf,inf,1,1,1,1,2,2,2,2,3,1,1,1,0,0,0
317771664,317770631,20740449,41.1790081,-8.6036451,0.4095049,2.0609937,-4.777825,0.00023569915,-0.0010364398,-6.15716e-05,-0.05271111,0.020147676,-0.15739723,-0.035991773,0.0054122694,-0.00391737,-0.021185223,-0.5964776,2.9802773,-1.313768,-1.0383278,0.48543033,108.99439,3.8778286,0.3116365,0.2979823,0.13681178,0.097049445,inf,inf,inf,inf,1,1,1,1,2,2,2,2,3,1,1,1,0,0,0
317871736,317870580,20740449,41.1790081,-8.6036451,0.40535873,2.0633376,-4.7809844,0.00023569915,-0.0010364398,-6.15716e-05,-0.06564532,0.013053962,-0.15739325,-0.03645127,0.0054122694,-0.00391737,-0.021185223,-0.9210423,2.2625237,1.7662085,-1.037944,0.48543033,108.99439,3.8809881,0.31999403,0.30242133,0.1415157,0.098634236,inf,inf,inf,inf,1,1,1,1,2,2,2,2,3,1,1,1,0,0,0
317971612,317970529,20740449,41.1790081,-8.6036451,0.4001659,2.065756,-4.7858453,0.00023569915,-0.0010364398,-6.15716e-05,-0.07256929,-0.004698998,-0.18159392,-0.061961457,0.0054122694,-0.00391737,-0.021185223,2.672002,0.44622093,0.1453415,-1.0386823,0.48543033,108.99439,3.885849,0.31150672,0.29780844,0.1367873,0.09699627,inf,inf,inf,inf,1,1,1,1,2,2,2,2,3,1,1,1,0,0,0
318071538,318070478,20740449,41.1790081,-8.6036451,0.39534783,2.0682082,-4.79305,0.00023569915,-0.0010364398,-6.15716e-05,-0.07416654,0.005093452,-0.13633049,-0.020351496,0.0054122694,-0.00391737,-0.021185223,1.9238707,2.197188,1.2313818,-1.0399232,0.48543033,108.99439,3.8930535,0.319869,0.30224803,0.14155877,0.09858554,inf,inf,inf,inf,1,1,1,1,2,2,2,2,3,1,1,1,0,0,0
318171500,318170428,20740449,41.1790081,-8.6036451,0.3905673,2.070189,-4.8012404,0.00023569915,-0.0010364398,-6.15716e-05,-0.05782783,-0.0015900995,-0.1660854,-0.055493474,0.0054122694,-0.00391737,-0.021185223,3.0740519,2.1385822,1.0559437,-1.0384685,0.48543033,108.99439,3.9012442,0.31137037,0.2976216,0.13662758,0.096941695,inf,inf,inf,inf,1,1,1,1,2,2,2,2,3,1,1,1,0,0,0
318271439,318270377,20740449,41.1790081,-8.6036451,0.38779703,2.0714283,-4.812619,0.00023569915,-0.0010364398,-6.15716e-05,-0.051467516,0.006011173,-0.17391235,-0.06909029,0.0054122694,-0.00391737,-0.021185223,3.4169102,-2.3501136,0.2909871,-1.0364904,0.48543033,108.99439,3.912623,0.31973383,0.3020617,0.14140432,0.09852338,inf,inf,inf,inf,1,1,1,1,2,2,2,2,3,1,1,1,0,0,0
318371365,318370327,20740449,41.1790081,-8.6036451,0.38511512,2.0735075,-4.8258805,0.00023569915,-0.0010364398,-6.15716e-05,-0.05191232,0.015903998,-0.15809606,-0.059834056,0.0054122694,-0.00391737,-0.021185223,0.26291135,-2.2549555,-1.6607656,-1.0347067,0.48543033,108.99439,3.9258842,0.3112492,0.29742992,0.13669911,0.09688179,inf,inf,inf,inf,1,1,1,1,2,2,2,2,3,1,1,1,0,0,0
318471254,318470276,20740449,41.1790081,-8.6036451,0.38210046,2.0764992,-4.8380556,0.00023569915,-0.0010364398,-6.15716e-05,-0.0416603,0.03184153,-0.1631901,-0.0703298,0.0054122694,-0.00391737,-0.021185223,-0.9356309,-2.0864117,-1.2431493,-1.0293334,0.48543033,108.99439,3.9380593,0.319619,0.30187023,0.14128049,0.09846607,inf,inf,inf,inf,1,1,1,1,2,2,2,2,3,1,1,1,0,0,0
318571302,318570225,20740449,41.1790081,-8.6036451,0.37952274,2.0802553,-4.848416,0.00023569915,-0.0010364398,-6.15716e-05,-0.03428084,0.052276663,-0.12502962,-0.037182737,0.0054122694,-0.00391737,-0.021185223,-1.1939455,0.6254788,-0.6642565,-1.0264933,0.48543033,108.99439,3.9484196,0.31112614,0.29722413,0.13657631,0.09681641,inf,inf,inf,inf,1,1,1,1,2,2,2,2,3,1,1,1,0,0,0
318671218,318670174,20740449,41.1790081,-8.6036451,0.37896922,2.0850801,-4.8565826,0.00023569915,-0.0010364398,-6.15716e-05,0.007248146,0.066091195,-0.112494506,-0.030521998,0.0054122694,-0.00391737,-0.021185223,1.2926724,0.47569993,-1.4989586,-1.023509,0.48543033,108.99439,3.9565864,0.31949565,0.3016548,0.14105211,0.09838606,inf,inf,inf,inf,1,1,1,1,2,2,2,2,3,1,1,1,0,0,0
318771365,318770124,20740449,41.1790081,-8.6036451,0.38108438,2.0900326,-4.863102,0.00023569915,-0.0010364398,-6.15716e-05,0.019696869,0.05481994,-0.07676046,-0.00027840136,0.0054122694,-0.00391737,-0.021185223,1.6283962,-0.7123178,0.7165026,-1.0186188,0.48543033,108.99439,3.9631057,0.31102,0.29701272,0.136312,0.09672972,inf,inf,inf,inf,1,1,1,1,2,2,2,2,3,1,1,1,0,0,0
318871812,318870073,20740449,41.1790081,-8.6036451,0.38642904,2.0949526,-4.868933,0.00023569915,-0.0010364398,-6.15716e-05,0.036104515,0.07043479,-0.083872244,-0.013015442,0.0054122694,-0.00391737,-0.021185223,-2.8356998,-0.8389761,-0.6051446,-1.0121176,0.48543033,108.99439,3.968937,0.3193855,0.30144286,0.14077994,0.09830426,inf,inf,inf,inf,1,1,1,1,2,2,2,2,3,1,1,1,0,0,0
318971235,318970022,20740449,41.1790081,-8.6036451,0.39280486,2.1016412,-4.8754377,0.00023569915,-0.0010364398,-6.15716e-05,0.0656242,0.07769196,-0.06420735,0.0006410383,0.0054122694,-0.00391737,-0.021185223,2.7832606,-1.6876767,0.28547055,-1.0077633,0.48543033,108.99439,3.9754415,0.31089723,0.29680514,0.1361369,0.0966577,inf,inf,inf,inf,1,1,1,1,2,2,2,2,3,1,1,1,0,0,0
319071105,319069971,20740449,41.1790081,-8.6036451,0.3994519,2.110879,-4.8835917,0.00023569915,-0.0010364398,-6.15716e-05,0.076958865,0.10397071,-0.07936565,-0.022299623,0.0054122694,-0.00391737,-0.021185223,0.3448415,0.9068388,-0.946141,-1.0075395,0.48543033,108.99439,3.9835954,0.31926244,0.3012347,0.1406746,0.09821616,inf,inf,inf,inf,1,1,1,1,2,2,2,2,3,1,1,1,0,0,0
319171325,319169921,20740449,41.1790081,-8.6036451,0.40586933,2.120301,-4.893903,0.00023569915,-0.0010364398,-6.15716e-05,0.061619796,0.09725437,-0.07470868,-0.026739065,0.0054122694,-0.00391737,-0.021185223,-2.3879797,-1.204116,0.23807706,-1.0076424,0.48543033,108.99439,3.9939065,0.31078932,0.29660025,0.13608189,0.09657118,inf,inf,inf,inf,1,1,1,1,2,2,2,2,3,1,1,1,0,0,0
319271071,319269870,20740449,41.1790081,-8.6036451,0.41172734,2.1283813,-4.9051414,0.00023569915,-0.0010364398,-6.15716e-05,0.050297372,0.1313159,-0.056150857,-0.017416777,0.0054122694,-0.00391737,-0.021185223,0.26193333,3.4119167,1.4128206,-1.0064641,0.48543033,108.99439,4.005145,0.31915548,0.3010295,0.14065644,0.09814244,inf,inf,inf,inf,1,1,1,1,2,2,2,2,3,1,1,1,0,0,0
319371112,319369819,20740449,41.1790081,-8.6036451,0.41598818,2.1370258,-4.9173074,0.00023569915,-0.0010364398,-6.15716e-05,0.029685624,0.09357486,-0.10104037,-0.07063672,0.0054122694,-0.00391737,-0.021185223,0.8270738,-4.6158867,-0.5020733,-1.0067323,0.48543033,108.99439,4.017311,0.3106007,0.2963682,0.1358412,0.09648261,inf,inf,inf,inf,1,1,1,1,2,2,2,2,3,1,1,1,0,0,0
319471334,319469768,20740449,41.1790081,-8.6036451,0.41908225,2.1441734,-4.932039,0.00023569915,-0.0010364398,-6.15716e-05,-0.004654204,0.10957651,-0.067444935,-0.04707944,0.0054122694,-0.00391737,-0.021185223,0.39054444,0.90682286,-1.5352236,-1.004916,0.48543033,108.99439,4.0320425,0.3189615,0.3007963,0.14060871,0.09805537,inf,inf,inf,inf,1,1,1,1,2,2,2,2,3,1,1,1,0,0,0
319570888,319569718,20740449,41.1790081,-8.6036451,0.42065844,2.1515446,-4.945214,0.00023569915,-0.0010364398,-6.15716e-05,-0.017110264,0.101564854,-0.045180965,-0.03361698,0.0054122694,-0.00391737,-0.021185223,-1.3604794,-0.023282161,2.2272234,-1.0058508,0.48543033,108.99439,4.0452175,0.31049815,0.29617813,0.13580738,0.0964306,inf,inf,inf,inf,1,1,1,1,2,2,2,2,3,1,1,1,0,0,0
319670745,319669667,20740449,41.1790081,-8.6036451,0.4213636,2.15801,-4.955054,0.00023569915,-0.0010364398,-6.15716e-05,-0.021660108,0.07123631,-0.018636411,-0.013978305,0.0054122694,-0.00391737,-0.021185223,-2.8076303,-0.7665419,0.9716872,-1.0084842,0.48543033,108.99439,4.0550575,0.31885973,0.30060694,0.14030042,0.097995915,inf,inf,inf,inf,1,1,1,1,2,2,2,2,3,1,1,1,0,0,0
319770786,319769620,20740449,41.1790081,-8.6036451,0.42109936,2.164171,-4.9598985,0.00023569915,-0.0010364398,-6.15716e-05,-0.022101339,0.08442823,0.013525071,0.013840578,0.0054122694,-0.00391737,-0.021185223,0.89523804,2.3206992,0.8453451,-1.0104474,0.48543033,108.99439,4.059902,0.31038657,0.29599068,0.13555165,0.096371494,inf,inf,inf,inf,1,1,1,1,2,2,2,2,3,1,1,1,0,0,0
319870582,319869566,20740449,41.1790081,-8.6036451,0.420769,2.1699383,-4.962732,0.00023569915,-0.0010364398,-6.15716e-05,-0.041443616,0.07072684,0.027099,0.023545401,0.0054122694,-0.00391737,-0.021185223,-0.13675493,-2.3327465,2.4781787,-1.0083379,0.48543033,108.99439,4.0627356,0.31874353,0.30042017,0.14000888,0.09793282,inf,inf,inf,inf,1,1,1,1,2,2,2,2,3,1,1,1,0,0,0
319970627,319969520,20740449,41.1790081,-8.6036451,0.4188406,2.1750762,-4.9655147,0.00023569915,-0.0010364398,-6.15716e-05,-0.042945966,0.06205303,0.010473679,0.003915273,0.0054122694,-0.00391737,-0.021185223,-1.1314306,2.791341,3.013009,-1.00677,0.48543033,108.99439,4.0655184,0.3102652,0.29580584,0.13536063,0.09631643,inf,inf,inf,inf,1,1,1,1,2,2,2,2,3,1,1,1,0,0,0
320070639,320069464,20740449,41.1790081,-8.6036451,0.41621867,2.1787944,-4.971307,0.00023569915,-0.0010364398,-6.15716e-05,-0.04543831,0.020962654,-0.009211065,-0.019775314,0.0054122694,-0.00391737,-0.021185223,-1.2273413,-2.0952864,1.7140496,-1.0062897,0.48543033,108.99439,4.0713105,0.31862313,0.30023605,0.14001633,0.09787648,inf,inf,inf,inf,1,1,1,1,2,2,2,2,3,1,1,1,0,0,0
320170531,320169413,20740449,41.1790081,-8.6036451,0.41322786,2.181498,-4.9767313,0.00023569915,-0.0010364398,-6.15716e-05,-0.036521412,0.012434966,-0.01962537,-0.032412894,0.0054122694,-0.00391737,-0.021185223,3.0371623,1.018039,0.93143517,-1.0062045,0.48543033,108.99439,4.076735,0.3101513,0.2956228,0.13548541,0.09625621,inf,inf,inf,inf,1,1,1,1,2,2,2,2,3,1,1,1,0,0,0
320270520,320269363,20740449,41.1790081,-8.6036451,0.4114947,2.1833007,-4.982225,0.00023569915,-0.0010364398,-6.15716e-05,-0.027183425,-0.016445642,-0.013393561,-0.028151272,0.0054122694,-0.00391737,-0.021185223,-0.06515875,-3.4488072,0.3592146,-1.0073112,0.48543033,108.99439,4.0822287,0.31851524,0.30114797,0.1401193,0.097979285,inf,inf,inf,inf,1,1,1,1,2,2,2,2,3,1,1,1,0,0,0
320370473,320369312,20740449,41.1790081,-8.6036451,0.4099084,2.1824234,-4.984815,0.00023569915,-0.0010364398,-6.15716e-05,-0.007907144,-0.038492978,0.023330059,0.0074369665,0.0054122694,-0.00391737,-0.021185223,-1.0477921,-1.6796876,-0.25123066,-1.0094719,0.48543033,108.99439,4.084819,0.31003338,0.29647747,0.13548549,0.09634515,inf,inf,inf,inf,1,1,1,1,2,2,2,2,3,1,1,1,0,0,0
320470197,320469261,20740449,41.1790081,-8.6036451,0.40816253,2.180355,-4.986124,0.00023569915,-0.0010364398,-6.15716e-05,-0.000245205,-0.03376571,0.015059945,-0.0025985474,0.0054122694,-0.00391737,-0.021185223,-0.9435842,1.2064071,-1.2967705,-1.0113529,0.48543033,108.99439,4.0861278,0.3183966,0.3009463,0.13992551,0.0979098,inf,inf,inf,inf,1,1,1,1,2,2,2,2,3,1,1,1,0,0,0
320570225,320569210,20740449,41.1790081,-8.6036451,0.40723762,2.176887,-4.9855795,0.00023569915,-0.0010364398,-6.15716e-05,0.016363377,-0.037994184,0.053977996,0.035528038,0.0054122694,-0.00391737,-0.021185223,1.6487575,0.63108975,2.1592155,-1.0127094,0.48543033,108.99439,4.085583,0.3099062,0.29628563,0.13536993,0.09627938,inf,inf,inf,inf,1,1,1,1,2,2,2,2,3,1,1,1,0,0,0
320670260,320669160,20740449,41.1790081,-8.6036451,0.4066969,2.1733444,-4.9845552,0.00023569915,-0.0010364398,-6.15716e-05,0.009022692,-0.062384766,0.04968258,0.030211262,0.0054122694,-0.00391737,-0.021185223,-2.1609945,-1.28877,0.41038156,-1.0143589,0.48543033,108.99439,4.084559,0.31826776,0.30075443,0.1397951,0.097842984,inf,inf,inf,inf,1,1,1,1,2,2,2,2,3,1,1,1,0,0,0
320770232,320769109,20740449,41.1790081,-8.6036451,0.40571854,2.1690621,-4.9812393,0.00023569915,-0.0010364398,-6.15716e-05,0.034839384,-0.046385612,0.064623915,0.045058835,0.0054122694,-0.00391737,-0.021185223,2.59064,2.512458,-0.3933626,-1.0158521,0.48543033,108.99439,4.081243,0.30976617,0.2960882,0.13522978,0.09621989,inf,inf,inf,inf,1,1,1,1,2,2,2,2,3,1,1,1,0,0,0
320870139,320869058,20740449,41.1790081,-8.6036451,0.40361723,2.1636326,-4.977211,0.00023569915,-0.0010364398,-6.15716e-05,0.031733286,-0.061368957,0.0837313,0.063646965,0.0054122694,-0.00391737,-0.021185223,1.6081764,-1.8604239,-0.40352046,-1.0193051,0.48543033,108.99439,4.0772147,0.31812704,0.30055708,0.13975127,0.09777633,inf,inf,inf,inf,1,1,1,1,2,2,2,2,3,1,1,1,0,0,0
320970191,320969007,20740449,41.1790081,-8.6036451,0.4014313,2.1575325,-4.972543,0.00023569915,-0.0010364398,-6.15716e-05,0.015321672,-0.054926272,0.06429662,0.04386131,0.0054122694,-0.00391737,-0.021185223,-1.8411891,0.74754524,-0.7999526,-1.0216664,0.48543033,108.99439,4.0725465,0.30962038,0.29589316,0.13509952,0.09615304,inf,inf,inf,inf,1,1,1,1,2,2,2,2,3,1,1,1,0,0,0
321070534,321068956,20740449,41.1790081,-8.6036451,0.39695433,2.149638,-4.9704366,0.00023569915,-0.0010364398,-6.15716e-05,0.045917287,-0.0462427,0.04877686,0.026999671,0.0054122694,-0.00391737,-0.021185223,1.2602278,1.4952575,0.36538106,-1.0197223,0.48543033,108.99439,4.0704403,0.3179814,0.30036205,0.1397545,0.09772183,inf,inf,inf,inf,1,1,1,1,2,2,2,2,3,1,1,1,0,0,0
321170074,321168909,20740449,41.1790081,-8.6036451,0.39380693,2.142472,-4.970588,0.00023569915,-0.0010364398,-6.15716e-05,0.0234629,-0.0551552,0.028315557,0.0061921556,0.0054122694,-0.00391737,-0.021185223,-2.4361374,0.108879775,-0.93594927,-1.017053,0.48543033,108.99439,4.070592,0.30944178,0.29569268,0.13523686,0.096088775,inf,inf,inf,inf,1,1,1,1,2,2,2,2,3,1,1,1,0,0,0
321270003,321268855,20740449,41.1790081,-8.6036451,0.39116308,2.136154,-4.9731417,0.00023569915,-0.0010364398,-6.15716e-05,0.048306003,-0.04636128,-0.0028038716,-0.02573878,0.0054122694,-0.00391737,-0.021185223,1.9809239,-1.6352832,-1.404621,-1.0152925,0.48543033,108.99439,4.0731454,0.31781155,0.3001617,0.1398977,0.097656034,inf,inf,inf,inf,1,1,1,1,2,2,2,2,3,1,1,1,0,0,0
321369905,321368804,20740449,41.1790081,-8.6036451,0.39060226,2.130673,-4.9748883,0.00023569915,-0.0010364398,-6.15716e-05,0.06434761,-0.028289352,0.03883177,0.01505425,0.0054122694,-0.00391737,-0.021185223,-0.010346872,1.6536645,-1.7603909,-1.0155401,0.48543033,108.99439,4.074892,0.30919427,0.29546446,0.13533849,0.0960087,inf,inf,inf,inf,1,1,1,1,2,2,2,2,3,1,1,1,0,0,0
321469862,321468753,20740449,41.1790081,-8.6036451,0.39050692,2.1249588,-4.9730062,0.00023569915,-0.0010364398,-6.15716e-05,0.084797226,-0.0367592,0.05554344,0.030886464,0.0054122694,-0.00391737,-0.021185223,1.8467221,-2.6884694,-0.6889745,-1.0140791,0.48543033,108.99439,4.07301,0.31755877,0.29993203,0.13974454,0.09756675,inf,inf,inf,inf,1,1,1,1,2,2,2,2,3,1,1,1,0,0,0
321569700,321568702,20740449,41.1790081,-8.6036451,0.392881,2.1183782,-4.9692426,0.00023569915,-0.0010364398,-6.15716e-05,0.09770953,-0.016643116,0.07988214,0.054460797,0.0054122694,-0.00391737,-0.021185223,0.4460619,2.3500044,0.6125064,-1.0107186,0.48543033,108.99439,4.0692463,0.3090025,0.29527774,0.13510711,0.09594952,inf,inf,inf,inf,1,1,1,1,2,2,2,2,3,1,1,1,0,0,0
321669721,321668651,20740449,41.1790081,-8.6036451,0.39621255,2.1098456,-4.9677367,0.00023569915,-0.0010364398,-6.15716e-05,0.0949875,-0.026989037,0.072807364,0.04566205,0.0054122694,-0.00391737,-0.021185223,-1.7642164,-0.5857976,-0.3568347,-1.0102733,0.48543033,108.99439,4.0677404,0.31736207,0.2997456,0.13958374,0.097505584,inf,inf,inf,inf,1,1,1,1,2,2,2,2,3,1,1,1,0,0,0
321769544,321768601,20740449,41.1790081,-8.6036451,0.4008057,2.1028373,-4.9656696,0.00023569915,-0.0010364398,-6.15716e-05,0.103977896,-0.02374228,0.060110327,0.032771796,0.0054122694,-0.00391737,-0.021185223,2.7357621,-1.8435599,1.3301419,-1.0104653,0.48543033,108.99439,4.0656734,0.30872887,0.29506192,0.13494202,0.095872805,inf,inf,inf,inf,1,1,1,1,2,2,2,2,3,1,1,1,0,0,0
321869536,321868550,20740449,41.1790081,-8.6036451,0.4040724,2.0951757,-4.9653053,0.00023569915,-0.0010364398,-6.15716e-05,0.11254155,-0.020722328,0.047484122,0.018977817,0.0054122694,-0.00391737,-0.021185223,2.1512396,1.3333626,1.0160671,-1.0076785,0.48543033,108.99439,4.065309,0.3170845,0.29952848,0.1395673,0.09742985,inf,inf,inf,inf,1,1,1,1,2,2,2,2,3,1,1,1,0,0,0
321969476,321968499,20740449,41.1790081,-8.6036451,0.40971583,2.0878732,-4.9631567,0.00023569915,-0.0010364398,-6.15716e-05,0.12509254,-0.014337529,0.033747118,0.006372928,0.0054122694,-0.00391737,-0.021185223,-1.1921916,-1.7819401,-3.9759486,-1.003116,0.48543033,108.99439,4.0631604,0.3085294,0.2948869,0.1350323,0.09581989,inf,inf,inf,inf,1,1,1,1,2,2,2,2,3,1,1,1,0,0,0
322069501,322068448,20740449,41.1790081,-8.6036451,0.4167812,2.0798018,-4.965161,0.00023569915,-0.0010364398,-6.15716e-05,0.14128894,-0.02515101,0.010451339,-0.01794554,0.0054122694,-0.00391737,-0.021185223,0.91122305,-2.9625742,-0.057502095,-1.0012486,0.48543033,108.99439,4.0651646,0.3168885,0.29935396,0.13966832,0.097374886,inf,inf,inf,inf,1,1,1,1,2,2,2,2,3,1,1,1,0,0,0
322169388,322168397,20740449,41.1790081,-8.6036451,0.42504153,2.07111,-4.9688687,0.00023569915,-0.0010364398,-6.15716e-05,0.16699216,-0.029571777,0.017408747,-0.011910616,0.0054122694,-0.00391737,-0.021185223,3.3767903,2.237736,0.27119392,-1.0016714,0.48543033,108.99439,4.0688725,0.30835423,0.29470372,0.13517211,0.09576345,inf,inf,inf,inf,1,1,1,1,2,2,2,2,3,1,1,1,0,0,0
322269401,322268346,20740449,41.1790081,-8.6036451,0.43311906,2.061315,-4.973343,0.00023569915,-0.0010364398,-6.15716e-05,0.16111447,-0.032099802,0.00022966812,-0.03021692,0.0054122694,-0.00391737,-0.021185223,-2.7687645,-0.47032213,0.045251384,-1.0040889,0.48543033,108.99439,4.0733466,0.31672174,0.29916143,0.1397296,0.09731419,inf,inf,inf,inf,1,1,1,1,2,2,2,2,3,1,1,1,0,0,0
322369315,322368296,20740449,41.1790081,-8.6036451,0.44361553,2.0530849,-4.976748,0.00023569915,-0.0010364398,-6.15716e-05,0.19295076,-0.015971607,0.00955993,-0.022077398,0.0054122694,-0.00391737,-0.021185223,1.8089854,-1.1669011,-0.03389668,-1.0031192,0.48543033,108.99439,4.0767517,0.30817997,0.29452044,0.13517675,0.095708445,inf,inf,inf,inf,1,1,1,1,2,2,2,2,3,1,1,1,0,0,0
322469289,322468245,20740449,41.1790081,-8.6036451,0.455532,2.045284,-4.9802938,0.00023569915,-0.0010364398,-6.15716e-05,0.21305944,0.0099634295,0.018995792,-0.014162111,0.0054122694,-0.00391737,-0.021185223,2.2529492,2.922349,-1.1466763,-0.9998858,0.48543033,108.99439,4.0802975,0.31654844,0.29897806,0.13972639,0.09725918,inf,inf,inf,inf,1,1,1,1,2,2,2,2,3,1,1,1,0,0,0
322569137,322568194,20740449,41.1790081,-8.6036451,0.47010916,2.039224,-4.983255,0.00023569915,-0.0010364398,-6.15716e-05,0.21384321,0.0069437632,0.038450416,0.0033318778,0.0054122694,-0.00391737,-0.021185223,-0.62651706,0.41498497,-1.7782001,-1.0022695,0.48543033,108.99439,4.0832586,0.30800655,0.29433793,0.13509761,0.09565436,inf,inf,inf,inf,1,1,1,1,2,2,2,2,3,1,1,1,0,0,0
322669125,322668143,20740449,41.1790081,-8.6036451,0.48605335,2.0327327,-4.983369,0.00023569915,-0.0010364398,-6.15716e-05,0.22779575,0.0133033255,0.05694933,0.020313479,0.0054122694,-0.00391737,-0.021185223,1.201004,-2.2692964,-0.3881012,-1.0062575,0.48543033,108.99439,4.0833726,0.31637564,0.29879552,0.13957265,0.09720661,inf,inf,inf,inf,1,1,1,1,2,2,2,2,3,1,1,1,0,0,0
322769176,322768092,20740449,41.1790081,-8.6036451,0.5036523,2.026711,-4.9822593,0.00023569915,-0.0010364398,-6.15716e-05,0.21735656,0.010212916,0.0460918,0.009094189,0.0054122694,-0.00391737,-0.021185223,0.23266025,1.5346843,1.1006284,-1.011016,0.48543033,108.99439,4.082263,0.3078342,0.29416394,0.13492176,0.09560638,inf,inf,inf,inf,1,1,1,1,2,2,2,2,3,1,1,1,0,0,0
322869128,322868041,20740449,41.1790081,-8.6036451,0.52115154,2.0177855,-4.982913,0.00023569915,-0.0010364398,-6.15716e-05,0.22049683,0.0022226651,0.028775083,-0.00963201,0.0054122694,-0.00391737,-0.021185223,-0.6878866,-3.0852892,-2.1339495,-1.0146856,0.48543033,108.99439,4.0829167,0.31620255,0.2986215,0.1395098,0.097158276,inf,inf,inf,inf,1,1,1,1,2,2,2,2,3,1,1,1,0,0,0
322969219,322967991,20740449,41.1790081,-8.6036451,0.5388102,2.01127,-4.986183,0.00023569915,-0.0010364398,-6.15716e-05,0.21663256,0.008022854,0.0058032223,-0.033446647,0.0054122694,-0.00391737,-0.021185223,2.887048,2.705332,1.4019368,-1.018786,0.48543033,108.99439,4.086187,0.3076016,0.2939671,0.13490409,0.09554343,inf,inf,inf,inf,1,1,1,1,2,2,2,2,3,1,1,1,0,0,0
323068982,323067940,20740449,41.1790081,-8.6036451,0.55387866,2.0043561,-4.9946747,0.00023569915,-0.0010364398,-6.15716e-05,0.17438248,-0.007274089,-0.004091134,-0.047170047,0.0054122694,-0.00391737,-0.021185223,-1.359959,-3.3693578,1.9325259,-1.0198373,0.48543033,108.99439,4.0946784,0.315969,0.29842347,0.13954584,0.09709579,inf,inf,inf,inf,1,1,1,1,2,2,2,2,3,1,1,1,0,0,0
323168972,323167889,20740449,41.1790081,-8.6036451,0.5666783,1.9986925,-5.0037723,0.00023569915,-0.0010364398,-6.15716e-05,0.14191444,0.001520437,-0.023895957,-0.06957737,0.0054122694,-0.00391737,-0.021185223,-3.496959,-1.7830173,-0.15381782,-1.0221832,0.48543033,108.99439,4.103776,0.30744034,0.29380906,0.13494495,0.09550376,inf,inf,inf,inf,1,1,1,1,2,2,2,2,3,1,1,1,0,0,0
323268994,323267838,20740449,41.1790081,-8.6036451,0.5746916,1.992437,-5.015008,0.00023569915,-0.0010364398,-6.15716e-05,0.10460089,0.013526134,-0.02399913,-0.0725072,0.0054122694,-0.00391737,-0.021185223,-4.5109353,0.894996,-0.18700033,-1.0250701,0.48543033,108.99439,4.1150117,0.31581452,0.2982661,0.13956217,0.09705445,inf,inf,inf,inf,1,1,1,1,2,2,2,2,3,1,1,1,0,0,0
323368903,323367787,20740449,41.1790081,-8.6036451,0.58028024,1.9878757,-5.022537,0.00023569915,-0.0010364398,-6.15716e-05,0.06601449,0.0198511,0.015661579,-0.03535109,0.0054122694,-0.00391737,-0.021185223,-3.3868408,-0.5762749,-2.2079487,-1.0234898,0.48543033,108.99439,4.122541,0.30730632,0.29365793,0.13494451,0.09546423,inf,inf,inf,inf,1,1,1,1,2,2,2,2,3,1,1,1,0,0,0
323468847,323467736,20740449,41.1790081,-8.6036451,0.58517647,1.9847467,-5.025264,0.00023569915,-0.0010364398,-6.15716e-05,0.059918784,0.030086024,0.06307746,0.010844658,0.0054122694,-0.00391737,-0.021185223,1.8468181,2.6402621,1.7172381,-1.0231743,0.48543033,108.99439,4.1252675,0.3156795,0.2981158,0.13931541,0.097013876,inf,inf,inf,inf,1,1,1,1,2,2,2,2,3,1,1,1,0,0,0
323568816,323567685,20740449,41.1790081,-8.6036451,0.59040594,1.9832646,-5.0253043,0.00023569915,-0.0010364398,-6.15716e-05,0.05601725,0.026974047,0.076343276,0.023640137,0.0054122694,-0.00391737,-0.021185223,-3.2759433,-0.52181333,-1.5267323,-1.0218809,0.48543033,108.99439,4.125308,0.30712086,0.29349038,0.13448288,0.09540995,inf,inf,inf,inf,1,1,1,1,2,2,2,2,3,1,1,1,0,0,0
323668741,323667637,20740449,41.1790081,-8.6036451,0.59629315,1.9824531,-5.026258,0.00023569915,-0.0010364398,-6.15716e-05,0.07547477,0.041501503,0.058703125,0.003973179,0.0054122694,-0.00391737,-0.021185223,2.2756753,3.2801123,0.9242197,-1.020082,0.48543033,108.99439,4.1262617,0.3154806,0.29794785,0.13896015,0.09696244,inf,inf,inf,inf,1,1,1,1,2,2,2,2,3,1,1,1,0,0,0
323768696,323767583,20740449,41.1790081,-8.6036451,0.602129,1.9816358,-5.0291395,0.00023569915,-0.0010364398,-6.15716e-05,0.048832968,0.016260084,0.025997417,-0.030132787,0.0054122694,-0.00391737,-0.021185223,-1.2596796,-3.9264379,-0.15344016,-1.0216607,0.48543033,108.99439,4.129143,0.30704042,0.29335967,0.13450414,0.09538418,inf,inf,inf,inf,1,1,1,1,2,2,2,2,3,1,1,1,0,0,0
323868475,323867533,20740449,41.1790081,-8.6036451,0.6071502,1.9799893,-5.0346246,0.00023569915,-0.0010364398,-6.15716e-05,0.041258864,0.02391894,0.021851175,-0.036192916,0.0054122694,-0.00391737,-0.021185223,-2.548273,-0.21291079,-0.5949964,-1.0225261,0.48543033,108.99439,4.1346283,0.31540728,0.2978182,0.1391694,0.096936785,inf,inf,inf,inf,1,1,1,1,2,2,2,2,3,1,1,1,0,0,0
323968492,323967482,20740449,41.1790081,-8.6036451,0.6101295,1.9796534,-5.0376973,0.00023569915,-0.0010364398,-6.15716e-05,0.016109876,0.029005677,0.03958299,-0.018799137,0.0054122694,-0.00391737,-0.021185223,-3.3708491,-0.5769882,-1.5301949,-1.0222405,0.48543033,108.99439,4.137701,0.30689925,0.2932022,0.13455096,0.09533704,inf,inf,inf,inf,1,1,1,1,2,2,2,2,3,1,1,1,0,0,0
324068368,324067431,20740449,41.1790081,-8.6036451,0.6091271,1.9808422,-5.0362983,0.00023569915,-0.0010364398,-6.15716e-05,0.006090818,0.03386119,0.10233585,0.0444036,0.0054122694,-0.00391737,-0.021185223,1.6517459,2.3291185,2.791426,-1.0232376,0.48543033,108.99439,4.136302,0.3152635,0.29765096,0.13901134,0.096884124,inf,inf,inf,inf,1,1,1,1,2,2,2,2,3,1,1,1,0,0,0
324168501,324167380,20740449,41.1790081,-8.6036451,0.6080998,1.9837203,-5.0270677,0.00023569915,-0.0010364398,-6.15716e-05,-0.0037179044,0.056494158,0.18824214,0.13126808,0.0054122694,-0.00391737,-0.021185223,2.2791197,0.63868994,2.103875,-1.0248667,0.48543033,108.99439,4.1270714,0.30682495,0.29307222,0.13423653,0.0953068,inf,inf,inf,inf,1,1,1,1,2,2,2,2,3,1,1,1,0,0,0
324268301,324267329,20740449,41.1790081,-8.6036451,0.6075279,1.9885426,-5.011192,0.00023569915,-0.0010364398,-6.15716e-05,-0.04488973,0.046506483,0.19178018,0.13745736,0.0054122694,-0.00391737,-0.021185223,-3.0458837,-2.0598516,-0.20417975,-1.0265105,0.48543033,108.99439,4.1111956,0.31517738,0.29752213,0.13841373,0.0968527,inf,inf,inf,inf,1,1,1,1,2,2,2,2,3,1,1,1,0,0,0
324368329,324367278,20740449,41.1790081,-8.6036451,0.6041902,1.9935491,-4.9940605,0.00023569915,-0.0010364398,-6.15716e-05,-0.05262524,0.05248491,0.19312932,0.14183454,0.0054122694,-0.00391737,-0.021185223,1.187223,-1.4923135,0.5364722,-1.0323489,0.48543033,108.99439,4.094064,0.30665842,0.29291666,0.13386756,0.095253356,inf,inf,inf,inf,1,1,1,1,2,2,2,2,3,1,1,1,0,0,0
324468208,324467227,20740449,41.1790081,-8.6036451,0.5975044,1.998427,-4.982036,0.00023569915,-0.0010364398,-6.15716e-05,-0.09194708,0.04805846,0.116788,0.06646217,0.0054122694,-0.00391737,-0.021185223,-0.050052106,0.7186339,-2.7042358,-1.0367498,0.48543033,108.99439,4.08204,0.31499922,0.29736626,0.13838437,0.0968021,inf,inf,inf,inf,1,1,1,1,2,2,2,2,3,1,1,1,0,0,0
324568239,324567176,20740449,41.1790081,-8.6036451,0.5902901,2.003873,-4.9778876,0.00023569915,-0.0010364398,-6.15716e-05,-0.09564929,0.05093234,0.040020168,-0.008991333,0.0054122694,-0.00391737,-0.021185223,1.4019781,1.9657985,0.3100534,-1.037871,0.48543033,108.99439,4.0778913,0.30649462,0.29277444,0.13414194,0.09520813,inf,inf,inf,inf,1,1,1,1,2,2,2,2,3,1,1,1,0,0,0
324668132,324667126,20740449,41.1790081,-8.6036451,0.58328927,2.0099337,-4.979544,0.00023569915,-0.0010364398,-6.15716e-05,-0.10559719,0.05068377,0.012164276,-0.036325112,0.0054122694,-0.00391737,-0.021185223,-0.19731419,-0.14666393,0.9580538,-1.0377761,0.48543033,108.99439,4.079548,0.31484878,0.29722393,0.13898471,0.09675503,inf,inf,inf,inf,1,1,1,1,2,2,2,2,3,1,1,1,0,0,0
324768177,324767075,20740449,41.1790081,-8.6036451,0.57529193,2.0152485,-4.98542,0.00023569915,-0.0010364398,-6.15716e-05,-0.10581994,0.025522515,-0.039138366,-0.08656731,0.0054122694,-0.00391737,-0.021185223,-1.1886374,-1.4543887,1.2425138,-1.0356421,0.48543033,108.99439,4.085424,0.3063826,0.29262933,0.13448729,0.095163584,inf,inf,inf,inf,1,1,1,1,2,2,2,2,3,1,1,1,0,0,0
324868335,324867023,20740449,41.1790081,-8.6036451,0.56755096,2.021527,-4.9951167,0.00023569915,-0.0010364398,-6.15716e-05,-0.08784058,0.029670341,-0.062758036,-0.10995753,0.0054122694,-0.00391737,-0.021185223,0.74897623,-3.1099167,-1.1480365,-1.0338181,0.48543033,108.99439,4.0951204,0.3147489,0.29707882,0.13923186,0.09671176,inf,inf,inf,inf,1,1,1,1,2,2,2,2,3,1,1,1,0,0,0
324968778,324966972,20740449,41.1790081,-8.6036451,0.56004864,2.028437,-5.0046473,0.00023569915,-0.0010364398,-6.15716e-05,-0.08674691,0.035569552,-0.04772082,-0.09387241,0.0054122694,-0.00391737,-0.021185223,-1.062368,-2.0534832,0.97092605,-1.0307144,0.48543033,108.99439,4.104651,0.30621982,0.292459,0.13459304,0.095105775,inf,inf,inf,inf,1,1,1,1,2,2,2,2,3,1,1,1,0,0,0
325067947,325066921,20740449,41.1790081,-8.6036451,0.550394,2.0383193,-5.0130825,0.00023569915,-0.0010364398,-6.15716e-05,-0.050590523,0.057599828,-0.037827194,-0.08298029,0.0054122694,-0.00391737,-0.021185223,1.532466,1.9051301,1.2791023,-1.0264274,0.48543033,108.99439,4.113086,0.31458127,0.29690707,0.13905777,0.09665223,inf,inf,inf,inf,1,1,1,1,2,2,2,2,3,1,1,1,0,0,0
325167988,325166871,20740449,41.1790081,-8.6036451,0.5437995,2.0492265,-5.0222683,0.00023569915,-0.0010364398,-6.15716e-05,-0.028765928,0.07995244,-0.049826868,-0.09595897,0.0054122694,-0.00391737,-0.021185223,-0.5771452,1.4827449,-1.8478135,-1.0225217,0.48543033,108.99439,4.122272,0.30617383,0.2923248,0.13439701,0.0950733,inf,inf,inf,inf,1,1,1,1,2,2,2,2,3,1,1,1,0,0,0
325267924,325266820,20740449,41.1790081,-8.6036451,0.54011416,2.06165,-5.032656,0.00023569915,-0.0010364398,-6.15716e-05,0.014482882,0.08868939,-0.050897386,-0.09798782,0.0054122694,-0.00391737,-0.021185223,2.5777438,1.563714,1.9469724,-1.0185341,0.48543033,108.99439,4.13266,0.31453103,0.2967732,0.13896327,0.09662033,inf,inf,inf,inf,1,1,1,1,2,2,2,2,3,1,1,1,0,0,0
325367880,325366768,20740449,41.1790081,-8.6036451,0.5388792,2.0735977,-5.0419283,0.00023569915,-0.0010364398,-6.15716e-05,0.023857044,0.0793308,-0.06104554,-0.10661353,0.0054122694,-0.00391737,-0.021185223,-2.6699724,0.07648275,0.4936281,-1.0173116,0.48543033,108.99439,4.141932,0.30612895,0.29219493,0.13435982,0.09504625,inf,inf,inf,inf,1,1,1,1,2,2,2,2,3,1,1,1,0,0,0
325467827,325466718,20740449,41.1790081,-8.6036451,0.53634924,2.084451,-5.0518427,0.00023569915,-0.0010364398,-6.15716e-05,0.04745376,0.08058348,-0.042722553,-0.08795892,0.0054122694,-0.00391737,-0.021185223,1.9541667,2.0809464,1.7295386,-1.0158857,0.48543033,108.99439,4.1518464,0.31448883,0.29664373,0.13891928,0.09659664,inf,inf,inf,inf,1,1,1,1,2,2,2,2,3,1,1,1,0,0,0
325567764,325566666,20740449,41.1790081,-8.6036451,0.535623,2.0937347,-5.059287,0.00023569915,-0.0010364398,-6.15716e-05,0.04757204,0.07684144,-0.0060612974,-0.051882368,0.0054122694,-0.00391737,-0.021185223,2.03173,-0.2983871,-1.1728178,-1.0143739,0.48543033,108.99439,4.159291,0.30609363,0.2920616,0.13425007,0.09502368,inf,inf,inf,inf,1,1,1,1,2,2,2,2,3,1,1,1,0,0,0
325667839,325666616,20740449,41.1790081,-8.6036451,0.535508,2.0997548,-5.065527,0.00023569915,-0.0010364398,-6.15716e-05,0.04485467,0.077968,0.024298767,-0.024654923,0.0054122694,-0.00391737,-0.021185223,-2.899565,-0.3415032,-2.5533164,-1.0111225,0.48543033,108.99439,4.1655307,0.3144473,0.2965109,0.13860922,0.09657307,inf,inf,inf,inf,1,1,1,1,2,2,2,2,3,1,1,1,0,0,0
325767667,325766564,20740449,41.1790081,-8.6036451,0.5374777,2.106466,-5.071235,0.00023569915,-0.0010364398,-6.15716e-05,0.04577887,0.073216274,0.043482997,-0.009302331,0.0054122694,-0.00391737,-0.021185223,0.46971348,-1.885938,1.6071903,-1.0090787,0.48543033,108.99439,4.171239,0.30606157,0.29192057,0.13393128,0.09499375,inf,inf,inf,inf,1,1,1,1,2,2,2,2,3,1,1,1,0,0,0
325867583,325866514,20740449,41.1790081,-8.6036451,0.5416149,2.1127832,-5.078267,0.00023569915,-0.0010364398,-6.15716e-05,0.06371044,0.0663684,0.0071039386,-0.04965649,0.0054122694,-0.00391737,-0.021185223,-0.7196707,0.24035557,-0.6192648,-1.0092051,0.48543033,108.99439,4.178271,0.31440648,0.29636115,0.1383515,0.09654058,inf,inf,inf,inf,1,1,1,1,2,2,2,2,3,1,1,1,0,0,0
325967696,325966463,20740449,41.1790081,-8.6036451,0.5466566,2.1191268,-5.0854516,0.00023569915,-0.0010364398,-6.15716e-05,0.069205314,0.06510952,0.028648619,-0.031224728,0.0054122694,-0.00391737,-0.021185223,-2.1564317,-2.916651,0.9879039,-1.0112936,0.48543033,108.99439,4.1854553,0.30602276,0.29177195,0.1339515,0.09496819,inf,inf,inf,inf,1,1,1,1,2,2,2,2,3,1,1,1,0,0,0
326067444,326066412,20740449,41.1790081,-8.6036451,0.55089074,2.1270287,-5.090047,0.00023569915,-0.0010364398,-6.15716e-05,0.079986505,0.08209377,0.091793336,0.027626991,0.0054122694,-0.00391737,-0.021185223,1.0266472,0.6151752,1.9289794,-1.0138992,0.48543033,108.99439,4.1900506,0.31436798,0.29621297,0.13836257,0.09651628,inf,inf,inf,inf,1,1,1,1,2,2,2,2,3,1,1,1,0,0,0
326167400,326166363,20740449,41.1790081,-8.6036451,0.55640715,2.1344562,-5.090869,0.00023569915,-0.0010364398,-6.15716e-05,0.07713501,0.088693835,0.122615516,0.053599995,0.0054122694,-0.00391737,-0.021185223,-3.8060915,-0.94913405,-1.2616014,-1.0181586,0.48543033,108.99439,4.1908727,0.30599767,0.29162896,0.13359669,0.09494398,inf,inf,inf,inf,1,1,1,1,2,2,2,2,3,1,1,1,0,0,0
326267480,326266310,20740449,41.1790081,-8.6036451,0.56152457,2.1396508,-5.0926247,0.00023569915,-0.0010364398,-6.15716e-05,0.10065184,0.06691956,0.11243692,0.0375038,0.0054122694,-0.00391737,-0.021185223,2.2119982,1.5821018,0.734251,-1.0206705,0.48543033,108.99439,4.1926284,0.31432986,0.29607058,0.1379609,0.09649148,inf,inf,inf,inf,1,1,1,1,2,2,2,2,3,1,1,1,0,0,0
326367373,326366259,20740449,41.1790081,-8.6036451,0.5679869,2.1434321,-5.094103,0.00023569915,-0.0010364398,-6.15716e-05,0.0934474,0.06557403,0.09305756,0.014891325,0.0054122694,-0.00391737,-0.021185223,-0.6056247,-1.3704506,-3.044564,-1.0200715,0.48543033,108.99439,4.1941066,0.3059618,0.29149136,0.13351426,0.09492847,inf,inf,inf,inf,1,1,1,1,2,2,2,2,3,1,1,1,0,0,0
326467242,326466208,20740449,41.1790081,-8.6036451,0.57584447,2.1433396,-5.09451,0.00023569915,-0.0010364398,-6.15716e-05,0.09839882,0.03548228,0.100832604,0.020675441,0.0054122694,-0.00391737,-0.021185223,-0.84147364,-3.5189524,-1.5893824,-1.0200456,0.48543033,108.99439,4.194514,0.31429473,0.2959337,0.1380777,0.096477985,inf,inf,inf,inf,1,1,1,1,2,2,2,2,3,1,1,1,0,0,0
326567255,326566157,20740449,41.1790081,-8.6036451,0.5838904,2.143534,-5.0935535,0.00023569915,-0.0010364398,-6.15716e-05,0.09687352,0.042527262,0.117218696,0.035603385,0.0054122694,-0.00391737,-0.021185223,1.9452451,2.7704566,2.1041844,-1.0207815,0.48543033,108.99439,4.1935573,0.30593193,0.29135868,0.1335569,0.09491666,inf,inf,inf,inf,1,1,1,1,2,2,2,2,3,1,1,1,0,0,0
326667233,326666106,20740449,41.1790081,-8.6036451,0.5897493,2.1435406,-5.0921874,0.00023569915,-0.0010364398,-6.15716e-05,0.06194614,0.026619077,0.09403027,0.011236378,0.0054122694,-0.00391737,-0.021185223,-1.4337422,-1.1456943,-5.155696,-1.0169182,0.48543033,108.99439,4.192191,0.31426355,0.2958021,0.13797984,0.0964708,inf,inf,inf,inf,1,1,1,1,2,2,2,2,3,1,1,1,0,0,0
326767269,326766056,20740449,41.1790081,-8.6036451,0.5923367,2.1415,-5.088573,0.00023569915,-0.0010364398,-6.15716e-05,0.019583918,0.0005915619,0.101130985,0.020808943,0.0054122694,-0.00391737,-0.021185223,-1.565507,-0.7155601,-1.6024795,-1.0141813,0.48543033,108.99439,4.1885767,0.3059692,0.2912611,0.13364623,0.09491824,inf,inf,inf,inf,1,1,1,1,2,2,2,2,3,1,1,1,0,0,0
326867229,326866004,20740449,41.1790081,-8.6036451,0.5908666,2.135552,-5.0823274,0.00023569915,-0.0010364398,-6.15716e-05,-0.017968226,-0.064332746,0.100534946,0.025724182,0.0054122694,-0.00391737,-0.021185223,-1.6569589,-2.9952319,2.3804455,-1.0144081,0.48543033,108.99439,4.182331,0.31430915,0.29570708,0.13811675,0.09646491,inf,inf,inf,inf,1,1,1,1,2,2,2,2,3,1,1,1,0,0,0
326966967,326965953,20740449,41.1790081,-8.6036451,0.5876385,2.1278462,-5.0740285,0.00023569915,-0.0010364398,-6.15716e-05,-0.03713915,-0.06039728,0.07258638,0.005089661,0.0054122694,-0.00391737,-0.021185223,0.4268082,3.2099116,1.7518791,-1.0160292,0.48543033,108.99439,4.174032,0.30593884,0.29114422,0.13363667,0.09489618,inf,inf,inf,inf,1,1,1,1,2,2,2,2,3,1,1,1,0,0,0
327067078,327065901,20740449,41.1790081,-8.6036451,0.5825371,2.1164434,-5.0673656,0.00023569915,-0.0010364398,-6.15716e-05,-0.058239814,-0.10311762,0.08165595,0.021481538,0.0054122694,-0.00391737,-0.021185223,-0.27229872,-3.827111,1.7317687,-1.0163305,0.48543033,108.99439,4.1673694,0.31427896,0.2955912,0.13824782,0.096439235,inf,inf,inf,inf,1,1,1,1,2,2,2,2,3,1,1,1,0,0,0
327167090,327165851,20740449,41.1790081,-8.6036451,0.57647943,2.1050487,-5.058599,0.00023569915,-0.0010364398,-6.15716e-05,-0.06782643,-0.09492547,0.05955272,0.007430246,0.0054122694,-0.00391737,-0.021185223,1.189815,2.2807148,0.76713985,-1.0156891,0.48543033,108.99439,4.1586027,0.30591124,0.2910231,0.13371286,0.09486978,inf,inf,inf,inf,1,1,1,1,2,2,2,2,3,1,1,1,0,0,0
327266983,327265799,20740449,41.1790081,-8.6036451,0.5689762,2.0968242,-5.0520372,0.00023569915,-0.0010364398,-6.15716e-05,-0.09913844,-0.11124072,0.026793482,-0.017793013,0.0054122694,-0.00391737,-0.021185223,-0.5981693,-4.3943095,-2.1223226,-1.0187484,0.48543033,108.99439,4.152041,0.31425387,0.29547122,0.13829942,0.09641769,inf,inf,inf,inf,1,1,1,1,2,2,2,2,3,1,1,1,0,0,0
327366808,327365749,20740449,41.1790081,-8.6036451,0.55726767,2.087967,-5.045603,0.00023569915,-0.0010364398,-6.15716e-05,-0.12958203,-0.10554808,0.018367374,-0.017562352,0.0054122694,-0.00391737,-0.021185223,0.5133422,2.6526868,1.0398157,-1.0222315,0.48543033,108.99439,4.1456065,0.30595726,0.29093617,0.13399075,0.094866745,inf,inf,inf,inf,1,1,1,1,2,2,2,2,3,1,1,1,0,0,0
327467035,327465697,20740449,41.1790081,-8.6036451,0.5419514,2.0807374,-5.0375557,0.00023569915,-0.0010364398,-6.15716e-05,-0.13852158,-0.09054491,0.04689066,0.019114358,0.0054122694,-0.00391737,-0.021185223,-0.84764284,-3.3149984,0.63577884,-1.0210131,0.48543033,108.99439,4.1375594,0.31431404,0.29538676,0.13854009,0.09641077,inf,inf,inf,inf,1,1,1,1,2,2,2,2,3,1,1,1,0,0,0
327566792,327565647,20740449,41.1790081,-8.6036451,0.52533853,2.07472,-5.025931,0.00023569915,-0.0010364398,-6.15716e-05,-0.153517,-0.06378859,0.10444504,0.08347054,0.0054122694,-0.00391737,-0.021185223,-1.766634,0.28345004,0.21629702,-1.0166136,0.48543033,108.99439,4.1259346,0.30593997,0.29080576,0.13387561,0.09483383,inf,inf,inf,inf,1,1,1,1,2,2,2,2,3,1,1,1,0,0,0
327666915,327665595,20740449,41.1790081,-8.6036451,0.5072056,2.0675912,-5.0113707,0.00023569915,-0.0010364398,-6.15716e-05,-0.13888885,-0.045030583,0.14207284,0.12600169,0.0054122694,-0.00391737,-0.021185223,2.1784225,0.8091625,1.2029787,-1.0150318,0.48543033,108.99439,4.1113744,0.31428784,0.29525238,0.13814057,0.09636824,inf,inf,inf,inf,1,1,1,1,2,2,2,2,3,1,1,1,0,0,0
327766916,327765544,20740449,41.1790081,-8.6036451,0.48961118,2.0619917,-4.996119,0.00023569915,-0.0010364398,-6.15716e-05,-0.1355067,-0.053891458,0.13394429,0.121527046,0.0054122694,-0.00391737,-0.021185223,-1.04559,0.15018967,-1.2275044,-1.0153648,0.48543033,108.99439,4.0961227,0.30596694,0.29067382,0.13355167,0.09480862,inf,inf,inf,inf,1,1,1,1,2,2,2,2,3,1,1,1,0,0,0
327866611,327865493,20740449,41.1790081,-8.6036451,0.4721064,2.0578442,-4.980711,0.00023569915,-0.0010364398,-6.15716e-05,-0.10083752,-0.043569714,0.1279218,0.118503146,0.0054122694,-0.00391737,-0.021185223,2.7755377,1.8391287,0.92877144,-1.0142875,0.48543033,108.99439,4.0807147,0.31431258,0.29511768,0.13807698,0.0963496,inf,inf,inf,inf,1,1,1,1,2,2,2,2,3,1,1,1,0,0,0
327966526,327965442,20740449,41.1790081,-8.6036451,0.45652634,2.0535796,-4.9647336,0.00023569915,-0.0010364398,-6.15716e-05,-0.10333529,-0.051368233,0.13831976,0.1327014,0.0054122694,-0.00391737,-0.021185223,-0.2385494,-2.92196,1.5132148,-1.012443,0.48543033,108.99439,4.0647373,0.3059177,0.29049718,0.13358486,0.09477484,inf,inf,inf,inf,1,1,1,1,2,2,2,2,3,1,1,1,0,0,0
328066729,328065391,20740449,41.1790081,-8.6036451,0.4406471,2.04866,-4.9497027,0.00023569915,-0.0010364398,-6.15716e-05,-0.08502343,-0.028796924,0.09757995,0.09564181,0.0054122694,-0.00391737,-0.021185223,1.6725657,1.5540419,0.6046555,-1.0110953,0.48543033,108.99439,4.0497065,0.31426173,0.2949415,0.13804135,0.09631505,inf,inf,inf,inf,1,1,1,1,2,2,2,2,3,1,1,1,0,0,0
328166416,328165340,20740449,41.1790081,-8.6036451,0.42680138,2.044958,-4.9381466,0.00023569915,-0.0010364398,-6.15716e-05,-0.07698231,-0.01222384,0.035844784,0.037183575,0.0054122694,-0.00391737,-0.021185223,0.041479476,-1.4416124,-5.452948,-1.011786,0.48543033,108.99439,4.0381503,0.30586815,0.29032078,0.1336777,0.09473986,inf,inf,inf,inf,1,1,1,1,2,2,2,2,3,1,1,1,0,0,0
328266444,328265289,20740449,41.1790081,-8.6036451,0.41236496,2.0415401,-4.932851,0.00023569915,-0.0010364398,-6.15716e-05,-0.075236216,-0.013234407,0.0066004656,0.010978576,0.0054122694,-0.00391737,-0.021185223,1.3803693,-2.5507748,0.15542291,-1.0140895,0.48543033,108.99439,4.0328546,0.31421596,0.29476595,0.13842136,0.096285395,inf,inf,inf,inf,1,1,1,1,2,2,2,2,3,1,1,1,0,0,0
328366395,328365238,20740449,41.1790081,-8.6036451,0.3990932,2.0392463,-4.933215,0.00023569915,-0.0010364398,-6.15716e-05,-0.078784995,0.020915644,-0.056600302,-0.050499372,0.0054122694,-0.00391737,-0.021185223,-1.5637597,2.8024123,-2.0635457,-1.0152686,0.48543033,108.99439,4.033219,0.30582532,0.2901449,0.13398066,0.09471093,inf,inf,inf,inf,1,1,1,1,2,2,2,2,3,1,1,1,0,0,0
