timestamp,timestamp_sample,ref_timestamp,ref_lat,ref_lon,x,y,z,delta_xy[0],delta_xy[1],delta_z,vx,vy,vz,z_deriv,delta_vxy[0],delta_vxy[1],delta_vz,ax,ay,az,heading,delta_heading,ref_alt,dist_bottom,eph,epv,evh,evv,vxy_max,vz_max,hagl_min,hagl_max,xy_valid,z_valid,v_xy_valid,v_z_valid,xy_reset_counter,z_reset_counter,vxy_reset_counter,vz_reset_counter,heading_reset_counter,heading_good_for_control,xy_global,z_global,dist_bottom_valid,dist_bottom_sensor_bitfield,dead_reckoning
783515647,783514689,40177334,41.1790555,-8.6035789,-4.4479065,-2.8851905,17.461742,0.008950949,-0.038369656,-1.5162039,0.01328789,-0.0065484997,-0.031309143,-0.041945733,0.035676077,-0.046197742,-0.010773117,-0.02825741,-0.026956124,-0.0048212428,0.19825213,-0.004077792,129.98909,0.10508919,0.31659886,0.28861308,0.13450535,0.0978805,inf,inf,inf,inf,1,1,1,1,3,5,3,3,3,0,1,1,0,0,0
783524689,783523711,40177334,41.1790555,-8.6035789,-4.447528,-2.8853908,17.461414,0.008950949,-0.038369656,-1.5162039,0.013368388,-0.0068244687,-0.031377546,-0.041968368,0.035676077,-0.046197742,-0.010773117,-0.010759877,-0.016594216,-0.014638753,0.19825236,-0.004077792,129.98909,0.105148315,0.31735167,0.2892236,0.13488872,0.09806075,inf,inf,inf,inf,1,1,1,1,3,5,3,3,3,0,1,1,0,0,0
783624093,783622879,40177334,41.1790555,-8.6035789,-4.4437623,-2.8874385,17.457642,0.008950949,-0.038369656,-1.5162039,0.008851671,-0.006850738,-0.03237709,-0.042652663,0.035676077,-0.046197742,-0.010773117,-0.0023096497,-0.09557958,0.03220133,0.1980296,-0.004077792,129.98909,0.09948349,0.30909592,0.28436816,0.13064863,0.096356235,inf,inf,inf,inf,1,1,1,1,3,5,3,3,3,0,1,1,0,0,0
783723102,783722053,40177334,41.1790555,-8.6035789,-4.4394627,-2.8893075,17.452002,0.008950949,-0.038369656,-1.5162039,0.00012501028,-0.009357767,-0.03341671,-0.045054678,0.035676077,-0.046197742,-0.010773117,-0.05555302,0.18903346,-0.5120154,0.19895236,-0.004077792,129.98909,0.101867676,0.3171611,0.28908357,0.13486072,0.09802661,inf,inf,inf,inf,1,1,1,1,3,5,3,3,3,0,1,1,0,0,0
783822962,783821272,40177334,41.1790555,-8.6035789,-4.4368863,-2.8908813,17.44698,0.008950949,-0.038369656,-1.5162039,-0.007825678,-0.008366143,-0.03581392,-0.04792898,0.035676077,-0.046197742,-0.010773117,-0.18074182,0.41530618,0.2756324,0.19913882,-0.004077792,129.98909,0.100782394,0.30890432,0.28424916,0.13062847,0.096327886,inf,inf,inf,inf,1,1,1,1,3,5,3,3,3,0,1,1,0,0,0
783921310,783920400,40177334,41.1790555,-8.6035789,-4.434208,-2.8921673,17.44204,0.008950949,-0.038369656,-1.5162039,-0.018748133,-0.009128575,-0.03669042,-0.049108613,0.035676077,-0.046197742,-0.010773117,-0.16439706,1.0716927,-1.1202419,0.19933836,-0.004077792,129.98909,0.105363846,0.3169657,0.28896037,0.13481727,0.097997785,inf,inf,inf,inf,1,1,1,1,3,5,3,3,3,0,1,1,0,0,0
784020937,784019574,40177334,41.1790555,-8.6035789,-4.433507,-2.8936965,17.438162,0.008950949,-0.038369656,-1.5162039,-0.02878393,-0.018069042,-0.0375165,-0.049008954,0.035676077,-0.046197742,-0.010773117,-0.44382098,-0.45556757,0.28796676,0.19947588,-0.004077792,129.98909,0.10404968,0.3087325,0.28413346,0.13059993,0.09630237,inf,inf,inf,inf,1,1,1,1,3,5,3,3,3,0,1,1,0,0,0
784124096,784118747,40177334,41.1790555,-8.6035789,-4.4312553,-2.8956165,17.434023,0.008950949,-0.038369656,-1.5162039,-0.039959837,-0.011442158,-0.035539992,-0.04637071,0.035676077,-0.046197742,-0.010773117,-0.7073044,2.229786,-0.030117072,0.19961788,-0.004077792,129.98909,0.107328415,0.31678987,0.28884354,0.13478154,0.09797308,inf,inf,inf,inf,1,1,1,1,3,5,3,3,3,0,1,1,0,0,0
784219222,784217921,40177334,41.1790555,-8.6035789,-4.431229,-2.8977292,17.430458,0.008950949,-0.038369656,-1.5162039,-0.045904092,-0.01697043,-0.040372323,-0.050000817,0.035676077,-0.046197742,-0.010773117,-0.05838139,0.4649022,0.062961206,0.19986461,-0.004077792,129.98909,0.10439873,0.30857974,0.28402495,0.13058524,0.096281,inf,inf,inf,inf,1,1,1,1,3,5,3,3,3,0,1,1,0,0,0
784318132,784317140,40177334,41.1790555,-8.6035789,-4.43068,-2.900502,17.426052,0.008950949,-0.038369656,-1.5162039,-0.05229774,-0.015962154,-0.03898928,-0.04824429,0.035676077,-0.046197742,-0.010773117,0.9178863,1.9055115,-0.3508216,0.20007695,-0.004077792,129.98909,0.105688095,0.31663412,0.28872988,0.1347681,0.097951114,inf,inf,inf,inf,1,1,1,1,3,5,3,3,3,0,1,1,0,0,0
784426636,784425283,40177334,41.1790555,-8.6035789,-4.432082,-2.9032884,17.42121,0.008950949,-0.038369656,-1.5162039,-0.06976674,-0.01920511,-0.04151188,-0.0502608,0.035676077,-0.046197742,-0.010773117,-0.38915443,1.2435795,0.16321181,0.20018946,-0.004077792,129.98909,0.10369301,0.30915365,0.2845227,0.13093662,0.09644273,inf,inf,inf,inf,1,1,1,1,3,5,3,3,3,0,1,1,0,0,0
784520864,784515441,40177334,41.1790555,-8.6035789,-4.431102,-2.9045625,17.41687,0.008950949,-0.038369656,-1.5162039,-0.07481845,-0.02577495,-0.04279829,-0.051389087,0.035676077,-0.046197742,-0.010773117,0.11251115,0.042011097,-0.3935692,0.20042123,-0.004077792,129.98909,0.10689163,0.3164932,0.28863338,0.13476487,0.09793512,inf,inf,inf,inf,1,1,1,1,3,5,3,3,3,0,1,1,0,0,0
784624966,784623631,40177334,41.1790555,-8.6035789,-4.432606,-2.9063432,17.412603,0.008950949,-0.038369656,-1.5162039,-0.08488654,-0.027105607,-0.041923575,-0.049406342,0.035676077,-0.046197742,-0.010773117,-0.20946743,0.39281633,0.059324045,0.20071234,-0.004077792,129.98909,0.10385132,0.30897066,0.28440082,0.13086954,0.09640976,inf,inf,inf,inf,1,1,1,1,3,5,3,3,3,0,1,1,0,0,0
784714776,784713789,40177334,41.1790555,-8.6035789,-4.431341,-2.9072163,17.40823,0.008950949,-0.038369656,-1.5162039,-0.08744003,-0.025911601,-0.046812624,-0.054099344,0.035676077,-0.046197742,-0.010773117,-0.18895702,0.5890066,-1.0962106,0.20101166,-0.004077792,129.98909,0.10849762,0.31630328,0.2885059,0.13468812,0.09790076,inf,inf,inf,inf,1,1,1,1,3,5,3,3,3,0,1,1,0,0,0
784823421,784821978,40177334,41.1790555,-8.6035789,-4.433118,-2.9087212,17.404285,0.008950949,-0.038369656,-1.5162039,-0.09757475,-0.03304251,-0.043810908,-0.04949562,0.035676077,-0.046197742,-0.010773117,0.51776284,-1.9898515,0.60288084,0.20112643,-0.004077792,129.98909,0.106744766,0.308803,0.28428906,0.13082163,0.09638013,inf,inf,inf,inf,1,1,1,1,3,5,3,3,3,0,1,1,0,0,0
784922013,784921152,40177334,41.1790555,-8.6035789,-4.430649,-2.909662,17.400162,0.008950949,-0.038369656,-1.5162039,-0.10379714,-0.030003782,-0.047021355,-0.051948965,0.035676077,-0.046197742,-0.010773117,0.08613628,0.28458327,-0.3748495,0.20143585,-0.004077792,129.98909,0.108127594,0.31688565,0.28900027,0.13503215,0.09805169,inf,inf,inf,inf,1,1,1,1,3,5,3,3,3,0,1,1,0,0,0
785021443,785020326,40177334,41.1790555,-8.6035789,-4.4311023,-2.9112673,17.396393,0.008950949,-0.038369656,-1.5162039,-0.10883501,-0.030382963,-0.045201324,-0.048978124,0.035676077,-0.046197742,-0.010773117,1.1983469,0.76502085,0.66316676,0.2015845,-0.004077792,129.98909,0.10569954,0.30871463,0.2842151,0.13080204,0.096375324,inf,inf,inf,inf,1,1,1,1,3,5,3,3,3,0,1,1,0,0,0
785120381,785119499,40177334,41.1790555,-8.6035789,-4.429767,-2.9131203,17.391916,0.008950949,-0.038369656,-1.5162039,-0.11812955,-0.03738561,-0.044665698,-0.048061315,0.035676077,-0.046197742,-0.010773117,-0.45427498,-1.2498573,0.23678212,0.20185733,-0.004077792,129.98909,0.10897446,0.31679583,0.2889243,0.13505264,0.098045744,inf,inf,inf,inf,1,1,1,1,3,5,3,3,3,0,1,1,0,0,0
785220119,785218718,40177334,41.1790555,-8.6035789,-4.4320517,-2.9153798,17.388374,0.008950949,-0.038369656,-1.5162039,-0.12453689,-0.03614762,-0.0480472,-0.050048225,0.035676077,-0.046197742,-0.010773117,-0.6435233,-0.7819393,0.4864153,0.20212562,-0.004077792,129.98909,0.10721588,0.30857533,0.28412038,0.13075203,0.096352145,inf,inf,inf,inf,1,1,1,1,3,5,3,3,3,0,1,1,0,0,0
785318778,785317846,40177334,41.1790555,-8.6035789,-4.4305377,-2.916796,17.384117,0.008950949,-0.038369656,-1.5162039,-0.12680782,-0.029768385,-0.047849968,-0.04927755,0.035676077,-0.046197742,-0.010773117,-0.27958995,2.360345,0.37542903,0.20238759,-0.004077792,129.98909,0.10785866,0.31665128,0.28882372,0.13501221,0.09802286,inf,inf,inf,inf,1,1,1,1,3,5,3,3,3,0,1,1,0,0,0
785418315,785417020,40177334,41.1790555,-8.6035789,-4.432644,-2.9187806,17.379936,0.008950949,-0.038369656,-1.5162039,-0.13238233,-0.041473538,-0.04728307,-0.048030905,0.035676077,-0.046197742,-0.010773117,0.11102586,-0.92832565,0.2980067,0.20257065,-0.004077792,129.98909,0.106897354,0.30844906,0.28402898,0.13070722,0.09633261,inf,inf,inf,inf,1,1,1,1,3,5,3,3,3,0,1,1,0,0,0
785517224,785516194,40177334,41.1790555,-8.6035789,-4.429092,-2.9202344,17.375767,0.008950949,-0.038369656,-1.5162039,-0.14070491,-0.039046522,-0.04959188,-0.04978312,0.035676077,-0.046197742,-0.010773117,-2.1094506,1.1551917,-0.5750572,0.20274709,-0.004077792,129.98909,0.108760834,0.31652498,0.2887295,0.13495855,0.098001115,inf,inf,inf,inf,1,1,1,1,3,5,3,3,3,0,1,1,0,0,0
785625222,785624430,40177334,41.1790555,-8.6035789,-4.4290333,-2.9224393,17.37126,0.008950949,-0.038369656,-1.5162039,-0.1387922,-0.040036324,-0.04819759,-0.047787745,0.035676077,-0.046197742,-0.010773117,0.94379234,1.9898214,0.017035386,0.20298567,-0.004077792,129.98909,0.10253906,0.30905175,0.2845416,0.13104872,0.09649442,inf,inf,inf,inf,1,1,1,1,3,5,3,3,3,0,1,1,0,0,0
785724666,785723557,40177334,41.1790555,-8.6035789,-4.425089,-2.9236631,17.365324,0.008950949,-0.038369656,-1.5162039,-0.14418763,-0.047255818,-0.04769448,-0.04850548,0.035676077,-0.046197742,-0.010773117,-1.3773642,-0.9870165,0.60064036,0.20339695,-0.004077792,129.98909,0.10335922,0.3171648,0.289257,0.13531905,0.09816526,inf,inf,inf,inf,1,1,1,1,3,5,3,3,3,0,1,1,0,0,0
785823551,785822730,40177334,41.1790555,-8.6035789,-4.424745,-2.9256124,17.359253,0.008950949,-0.038369656,-1.5162039,-0.14056566,-0.040523555,-0.05149633,-0.05338839,0.035676077,-0.046197742,-0.010773117,0.024341581,-0.023227017,-0.51336545,0.20347863,-0.004077792,129.98909,0.09850311,0.30894858,0.28446522,0.13103524,0.096478485,inf,inf,inf,inf,1,1,1,1,3,5,3,3,3,0,1,1,0,0,0
785922744,785921904,40177334,41.1790555,-8.6035789,-4.421153,-2.927543,17.351913,0.008950949,-0.038369656,-1.5162039,-0.14010426,-0.043970402,-0.052289482,-0.056318935,0.035676077,-0.046197742,-0.010773117,0.6303251,0.62324566,0.42327982,0.2037543,-0.004077792,129.98909,0.10326004,0.3170596,0.28917587,0.13529718,0.0981502,inf,inf,inf,inf,1,1,1,1,3,5,3,3,3,0,1,1,0,0,0
786023581,786021078,40177334,41.1790555,-8.6035789,-4.4207706,-2.9296374,17.3456,0.008950949,-0.038369656,-1.5162039,-0.14563401,-0.048293766,-0.05733344,-0.062028527,0.035676077,-0.046197742,-0.010773117,0.44116917,-0.66060567,-1.020066,0.20413437,-0.004077792,129.98909,0.10149002,0.3088329,0.2843878,0.13101783,0.09646522,inf,inf,inf,inf,1,1,1,1,3,5,3,3,3,0,1,1,0,0,0
786121241,786120297,40177334,41.1790555,-8.6035789,-4.4151983,-2.9302504,17.338867,0.008950949,-0.038369656,-1.5162039,-0.14613935,-0.04276475,-0.052359134,-0.05802442,0.035676077,-0.046197742,-0.010773117,-0.71820444,0.2659331,-0.08297489,0.20427091,-0.004077792,129.98909,0.106645584,0.31694317,0.28909868,0.13528441,0.09813337,inf,inf,inf,inf,1,1,1,1,3,5,3,3,3,0,1,1,0,0,0
786221147,786219425,40177334,41.1790555,-8.6035789,-4.4143767,-2.931706,17.333532,0.008950949,-0.038369656,-1.5162039,-0.14133471,-0.04476271,-0.05627251,-0.061324663,0.035676077,-0.046197742,-0.010773117,0.35797906,-0.8602298,0.52259326,0.20450175,-0.004077792,129.98909,0.103479385,0.3086727,0.2842934,0.13094349,0.096432336,inf,inf,inf,inf,1,1,1,1,3,5,3,3,3,0,1,1,0,0,0
786319681,786318599,40177334,41.1790555,-8.6035789,-4.4106793,-2.932631,17.326889,0.008950949,-0.038369656,-1.5162039,-0.14304054,-0.046303082,-0.060322,-0.065894864,0.035676077,-0.046197742,-0.010773117,-0.0031002238,0.4417353,-0.59851414,0.20477208,-0.004077792,129.98909,0.106033325,0.31677067,0.2889955,0.13519575,0.09810007,inf,inf,inf,inf,1,1,1,1,3,5,3,3,3,0,1,1,0,0,0
786423315,786417772,40177334,41.1790555,-8.6035789,-4.4101124,-2.9341555,17.321379,0.008950949,-0.038369656,-1.5162039,-0.14808278,-0.04870169,-0.05861338,-0.06359675,0.035676077,-0.046197742,-0.010773117,-0.33376536,-0.69816995,-1.0763186,0.20482937,-0.004077792,129.98909,0.10663223,0.30858144,0.28423032,0.13092469,0.09642118,inf,inf,inf,inf,1,1,1,1,3,5,3,3,3,0,1,1,0,0,0
786517834,786516946,40177334,41.1790555,-8.6035789,-4.405221,-2.9348137,17.315966,0.008950949,-0.038369656,-1.5162039,-0.14483339,-0.04948107,-0.056740683,-0.06107697,0.035676077,-0.046197742,-0.010773117,-0.74293476,-1.0487784,-0.12883435,0.20499475,-0.004077792,129.98909,0.10966873,0.31668136,0.28892964,0.13518126,0.09808745,inf,inf,inf,inf,1,1,1,1,3,5,3,3,3,0,1,1,0,0,0
786618073,786616165,40177334,41.1790555,-8.6035789,-4.404999,-2.9363763,17.311543,0.008950949,-0.038369656,-1.5162039,-0.14440136,-0.04590972,-0.05778004,-0.0605703,0.035676077,-0.046197742,-0.010773117,-0.93867564,-0.016645389,0.590265,0.20484425,-0.004077792,129.98909,0.106472015,0.30844325,0.28413594,0.13086307,0.09638956,inf,inf,inf,inf,1,1,1,1,3,5,3,3,3,0,1,1,0,0,0
786725090,786724309,40177334,41.1790555,-8.6035789,-4.401348,-2.9373345,17.305653,0.008950949,-0.038369656,-1.5162039,-0.14273065,-0.046639074,-0.056621052,-0.058783032,0.035676077,-0.046197742,-0.010773117,-0.04996341,0.35620606,0.17846754,0.20484035,-0.004077792,129.98909,0.10972214,0.31729358,0.28944412,0.13550422,0.09823764,inf,inf,inf,inf,1,1,1,1,3,5,3,3,3,0,1,1,0,0,0
786820460,786814467,40177334,41.1790555,-8.6035789,-4.402075,-2.9390988,17.301645,0.008950949,-0.038369656,-1.5162039,-0.14512749,-0.050700516,-0.06034123,-0.06115364,0.035676077,-0.046197742,-0.010773117,0.5060139,0.2365504,-0.08382192,0.20481959,-0.004077792,129.98909,0.10523987,0.3083157,0.28497934,0.13079278,0.096510775,inf,inf,inf,inf,1,1,1,1,3,5,3,3,3,0,1,1,0,0,0
786923650,786922659,40177334,41.1790555,-8.6035789,-4.396136,-2.9407482,17.296522,0.008950949,-0.038369656,-1.5162039,-0.14149407,-0.053475376,-0.060235906,-0.06001681,0.035676077,-0.046197742,-0.010773117,-0.052220125,-1.439884,-1.0575993,0.2046973,-0.004077792,129.98909,0.11176109,0.31716147,0.28934643,0.13542986,0.09820896,inf,inf,inf,inf,1,1,1,1,3,5,3,3,3,0,1,1,0,0,0
787023365,787021876,40177334,41.1790555,-8.6035789,-4.395757,-2.943253,17.292742,0.008950949,-0.038369656,-1.5162039,-0.14445011,-0.05246377,-0.060029507,-0.058082536,0.035676077,-0.046197742,-0.010773117,-0.8203011,0.31802386,-0.80830187,0.204761,-0.004077792,129.98909,0.10692215,0.30883434,0.28451782,0.1310525,0.09649769,inf,inf,inf,inf,1,1,1,1,3,5,3,3,3,0,1,1,0,0,0
787122004,787121004,40177334,41.1790555,-8.6035789,-4.390932,-2.944477,17.287766,0.008950949,-0.038369656,-1.5162039,-0.14291027,-0.04831385,-0.052441146,-0.050143972,0.035676077,-0.046197742,-0.010773117,-0.8890789,0.3081162,0.32815626,0.20478909,-0.004077792,129.98909,0.10964012,0.31695184,0.28922355,0.13531129,0.09816261,inf,inf,inf,inf,1,1,1,1,3,5,3,3,3,0,1,1,0,0,0
787221708,787220178,40177334,41.1790555,-8.6035789,-4.3904757,-2.9464142,17.283928,0.008950949,-0.038369656,-1.5162039,-0.1391165,-0.051935323,-0.05670974,-0.053181373,0.035676077,-0.046197742,-0.010773117,-0.13241814,-1.149846,0.02882992,0.20472772,-0.004077792,129.98909,0.1056118,0.3086525,0.28440297,0.13097195,0.09645405,inf,inf,inf,inf,1,1,1,1,3,5,3,3,3,0,1,1,0,0,0
787320365,787319351,40177334,41.1790555,-8.6035789,-4.3846793,-2.9475572,17.278963,0.008950949,-0.038369656,-1.5162039,-0.13855939,-0.046945363,-0.060415056,-0.056746926,0.035676077,-0.046197742,-0.010773117,-0.31535256,2.0414724,-0.1621191,0.20485176,-0.004077792,129.98909,0.11069107,0.31676072,0.2891028,0.13521451,0.098119885,inf,inf,inf,inf,1,1,1,1,3,5,3,3,3,0,1,1,0,0,0
787420397,787418525,40177334,41.1790555,-8.6035789,-4.3832974,-2.949522,17.275492,0.008950949,-0.038369656,-1.5162039,-0.1375098,-0.050522808,-0.054365892,-0.04922063,0.035676077,-0.046197742,-0.010773117,0.28380975,0.007490923,-0.12574132,0.20481202,-0.004077792,129.98909,0.10586357,0.30848977,0.2842943,0.13086535,0.09641543,inf,inf,inf,inf,1,1,1,1,3,5,3,3,3,0,1,1,0,0,0
787518652,787517744,40177334,41.1790555,-8.6035789,-4.378622,-2.9503872,17.270243,0.008950949,-0.038369656,-1.5162039,-0.13423435,-0.051840693,-0.054188773,-0.049280595,0.035676077,-0.046197742,-0.010773117,-0.48289093,-1.4589705,0.14487511,0.20473033,-0.004077792,129.98909,0.106487274,0.31658933,0.28997362,0.13509154,0.09823756,inf,inf,inf,inf,1,1,1,1,3,5,3,3,3,0,1,1,0,0,0
787618236,787616872,40177334,41.1790555,-8.6035789,-4.3780727,-2.9520175,17.265812,0.008950949,-0.038369656,-1.5162039,-0.12896347,-0.042905215,-0.057497244,-0.052060388,0.035676077,-0.046197742,-0.010773117,0.5237471,2.9633722,1.0501308,0.20468462,-0.004077792,129.98909,0.103401184,0.30833602,0.2851297,0.13082184,0.09653013,inf,inf,inf,inf,1,1,1,1,3,5,3,3,3,0,1,1,0,0,0
787726245,787725062,40177334,41.1790555,-8.6035789,-4.371575,-2.9516373,17.259876,0.008950949,-0.038369656,-1.5162039,-0.12558918,-0.04781005,-0.053505987,-0.04853844,0.035676077,-0.046197742,-0.010773117,-0.42088595,-0.98495865,1.4380145,0.20476733,-0.004077792,129.98909,0.10769844,0.31718713,0.2894952,0.13545178,0.0982216,inf,inf,inf,inf,1,1,1,1,3,5,3,3,3,0,1,1,0,0,0
787816297,787815220,40177334,41.1790555,-8.6035789,-4.3710537,-2.9523563,17.255596,0.008950949,-0.038369656,-1.5162039,-0.12567085,-0.045927286,-0.058203455,-0.053032205,0.035676077,-0.046197742,-0.010773117,0.96807396,-0.47755092,-1.2024575,0.20480658,-0.004077792,129.98909,0.10673714,0.32499978,0.29470223,0.13930877,0.09986264,inf,inf,inf,inf,1,1,1,1,3,5,3,3,3,0,1,1,0,0,0
787924258,787923455,40177334,41.1790555,-8.6035789,-4.362931,-2.95228,17.24659,0.008950949,-0.038369656,-1.5162039,-0.12560996,-0.043264285,-0.061454497,-0.059584104,0.035676077,-0.046197742,-0.010773117,-1.0884689,0.30951437,-1.0769587,0.2046875,-0.004077792,129.98909,0.10241318,0.3169778,0.28935993,0.13525012,0.09816698,inf,inf,inf,inf,1,1,1,1,3,5,3,3,3,0,1,1,0,0,0
788017250,788013612,40177334,41.1790555,-8.6035789,-4.360609,-2.9531937,17.240059,0.008950949,-0.038369656,-1.5162039,-0.11510897,-0.037451446,-0.057336815,-0.056815673,0.035676077,-0.046197742,-0.010773117,0.6983177,1.4109563,0.70842314,0.20456962,-0.004077792,129.98909,0.09623337,0.30801687,0.28490704,0.13065341,0.0964464,inf,inf,inf,inf,1,1,1,1,3,5,3,3,3,0,1,1,0,0,0
788122619,788121757,40177334,41.1790555,-8.6035789,-4.3549547,-2.9542942,17.230593,0.008950949,-0.038369656,-1.5162039,-0.11702594,-0.044935614,-0.05698243,-0.059508227,0.035676077,-0.046197742,-0.010773117,-0.69454366,-1.6698679,1.0403622,0.20467648,-0.004077792,129.98909,0.10161018,0.3168519,0.29025114,0.1352758,0.09829444,inf,inf,inf,inf,1,1,1,1,3,5,3,3,3,0,1,1,0,0,0
788222208,788220930,40177334,41.1790555,-8.6035789,-4.353904,-2.9561384,17.224073,0.008950949,-0.038369656,-1.5162039,-0.11541219,-0.03609336,-0.06438251,-0.067321725,0.035676077,-0.046197742,-0.010773117,0.3784704,1.8996106,-0.118022874,0.2045915,-0.004077792,129.98909,0.097242355,0.30856478,0.28538337,0.13092613,0.09657524,inf,inf,inf,inf,1,1,1,1,3,5,3,3,3,0,1,1,0,0,0
788321178,788320104,40177334,41.1790555,-8.6035789,-4.347942,-2.9579988,17.215893,0.008950949,-0.038369656,-1.5162039,-0.10977421,-0.042421285,-0.065883,-0.07050376,0.035676077,-0.046197742,-0.010773117,0.6311299,1.0632594,-0.23230955,0.2047573,-0.004077792,129.98909,0.10306549,0.31667235,0.29012328,0.13511835,0.09824821,inf,inf,inf,inf,1,1,1,1,3,5,3,3,3,0,1,1,0,0,0
788421215,788419323,40177334,41.1790555,-8.6035789,-4.34586,-2.9601984,17.209856,0.008950949,-0.038369656,-1.5162039,-0.10832651,-0.039199825,-0.060351167,-0.06441775,0.035676077,-0.046197742,-0.010773117,1.0100574,1.2241824,0.13449359,0.20462595,-0.004077792,129.98909,0.099472046,0.30840984,0.2852677,0.13084935,0.09653161,inf,inf,inf,inf,1,1,1,1,3,5,3,3,3,0,1,1,0,0,0
788519277,788518451,40177334,41.1790555,-8.6035789,-4.3389854,-2.960473,17.202229,0.008950949,-0.038369656,-1.5162039,-0.100809686,-0.04254,-0.062293787,-0.06713141,0.035676077,-0.046197742,-0.010773117,0.21555915,-0.02405103,1.5856605,0.20460549,-0.004077792,129.98909,0.10519791,0.3165116,0.29000258,0.13507013,0.098202065,inf,inf,inf,inf,1,1,1,1,3,5,3,3,3,0,1,1,0,0,0
788618993,788617625,40177334,41.1790555,-8.6035789,-4.3362036,-2.9616752,17.196346,0.008950949,-0.038369656,-1.5162039,-0.1064764,-0.041916747,-0.06615456,-0.07002016,0.035676077,-0.046197742,-0.010773117,-1.1941109,0.30703428,0.0761974,0.20472486,-0.004077792,129.98909,0.10197067,0.308269,0.2851447,0.1307897,0.09648771,inf,inf,inf,inf,1,1,1,1,3,5,3,3,3,0,1,1,0,0,0
788717702,788716799,40177334,41.1790555,-8.6035789,-4.329759,-2.9620159,17.18845,0.008950949,-0.038369656,-1.5162039,-0.10043357,-0.040261578,-0.066011995,-0.07074862,0.035676077,-0.046197742,-0.010773117,-0.77058125,0.36284974,1.0404516,0.20482868,-0.004077792,129.98909,0.104213715,0.31636342,0.28987703,0.13499697,0.0981571,inf,inf,inf,inf,1,1,1,1,3,5,3,3,3,0,1,1,0,0,0
788826145,788825034,40177334,41.1790555,-8.6035789,-4.326374,-2.9634454,17.179941,0.008950949,-0.038369656,-1.5162039,-0.09572036,-0.04632924,-0.06862883,-0.07408224,0.035676077,-0.046197742,-0.010773117,0.54907596,-0.7761327,0.4961134,0.20479129,-0.004077792,129.98909,0.09997177,0.30883047,0.28561586,0.13111171,0.0966249,inf,inf,inf,inf,1,1,1,1,3,5,3,3,3,0,1,1,0,0,0
788920440,788915192,40177334,41.1790555,-8.6035789,-4.321324,-2.9649873,17.171764,0.008950949,-0.038369656,-1.5162039,-0.0985885,-0.042070296,-0.067647696,-0.07453417,0.035676077,-0.046197742,-0.010773117,-1.1245942,-1.7762469,1.3812292,0.2048083,-0.004077792,129.98909,0.102716446,0.3162021,0.2897463,0.13493337,0.09811436,inf,inf,inf,inf,1,1,1,1,3,5,3,3,3,0,1,1,0,0,0
789024246,789023336,40177334,41.1790555,-8.6035789,-4.318314,-2.9671912,17.162365,0.008950949,-0.038369656,-1.5162039,-0.086271234,-0.044614024,-0.073637545,-0.08173622,0.035676077,-0.046197742,-0.010773117,1.2969347,-0.10866015,-0.3346465,0.20500991,-0.004077792,129.98909,0.09725952,0.30869102,0.28548524,0.13108331,0.09658203,inf,inf,inf,inf,1,1,1,1,3,5,3,3,3,0,1,1,0,0,0
789123529,789122509,40177334,41.1790555,-8.6035789,-4.3124247,-2.9680893,17.15196,0.008950949,-0.038369656,-1.5162039,-0.09333785,-0.052147757,-0.069259815,-0.0797518,0.035676077,-0.046197742,-0.010773117,-1.0215386,-3.3557198,-0.020543583,0.2049245,-0.004077792,129.98909,0.10127258,0.31681573,0.29022285,0.1352808,0.09824977,inf,inf,inf,inf,1,1,1,1,3,5,3,3,3,0,1,1,0,0,0
789223098,789221683,40177334,41.1790555,-8.6035789,-4.310171,-2.9698517,17.142887,0.008950949,-0.038369656,-1.5162039,-0.10005702,-0.037736237,-0.07086332,-0.08225929,0.035676077,-0.046197742,-0.010773117,-3.4473703,3.0180278,-0.49645716,0.20513226,-0.004077792,129.98909,0.105457306,0.3084809,0.28531656,0.13095723,0.096522115,inf,inf,inf,inf,1,1,1,1,3,5,3,3,3,0,1,1,0,0,0
789323209,789320902,40177334,41.1790555,-8.6035789,-4.304364,-2.9711432,17.131514,0.008950949,-0.038369656,-1.5162039,-0.09093464,-0.042610284,-0.07972485,-0.093715474,0.035676077,-0.046197742,-0.010773117,-2.7460449,0.25558984,-0.90306216,0.2052163,-0.004077792,129.98909,0.116830826,0.31659406,0.29005092,0.1351402,0.09819091,inf,inf,inf,inf,1,1,1,1,3,5,3,3,3,0,1,1,0,0,0
789420978,789420031,40177334,41.1790555,-8.6035789,-4.3017073,-2.9729073,17.119839,0.008950949,-0.038369656,-1.5162039,-0.0775876,-0.051689368,-0.078738794,-0.09518973,0.035676077,-0.046197742,-0.010773117,2.560359,-3.7535486,3.1037605,0.20526128,-0.004077792,129.98909,0.1285057,0.30835104,0.28518477,0.13092265,0.09649175,inf,inf,inf,inf,1,1,1,1,3,5,3,3,3,0,1,1,0,0,0
789519948,789519204,40177334,41.1790555,-8.6035789,-4.297621,-2.9729261,17.107006,0.008950949,-0.038369656,-1.5162039,-0.09334588,-0.039468203,-0.10228065,-0.12076986,0.035676077,-0.046197742,-0.010773117,-2.811776,-2.2101405,-3.5487943,0.20608369,-0.004077792,129.98909,0.14133835,0.31646043,0.2899135,0.13511729,0.09815091,inf,inf,inf,inf,1,1,1,1,3,5,3,3,3,0,1,1,0,0,0
789623783,789618378,40177334,41.1790555,-8.6035789,-4.2963157,-2.9740932,17.09469,0.008950949,-0.038369656,-1.5162039,-0.09192276,-0.024337856,-0.09399123,-0.11319453,0.035676077,-0.046197742,-0.010773117,1.2284117,7.6264176,4.542595,0.20803224,-0.004077792,129.98909,0.1536541,0.3082079,0.28503704,0.1309415,0.096448325,inf,inf,inf,inf,1,1,1,1,3,5,3,3,3,0,1,1,0,0,0
789718477,789717552,40177334,41.1790555,-8.6035789,-4.29326,-2.9765825,17.08139,0.008950949,-0.038369656,-1.5162039,-0.10723343,-0.051579747,-0.10061358,-0.120461255,0.035676077,-0.046197742,-0.010773117,-0.745356,-0.689437,6.4563923,0.21289659,-0.004077792,129.98909,0.16695404,0.31631482,0.28976327,0.1352063,0.09811274,inf,inf,inf,inf,1,1,1,1,3,5,3,3,3,0,1,1,0,0,0
789826620,789825741,40177334,41.1790555,-8.6035789,-4.294414,-2.980754,17.063171,0.008950949,-0.038369656,-1.5162039,-0.12477173,-0.06556122,-0.12849146,-0.15040456,0.035676077,-0.046197742,-0.010773117,-5.2474303,-1.3049473,4.994062,0.2261237,-0.004077792,129.98909,0.18517303,0.30871397,0.28544414,0.13131809,0.0965674,inf,inf,inf,inf,1,1,1,1,3,5,3,3,3,0,1,1,0,0,0
789916731,789915899,40177334,41.1790555,-8.6035789,-4.2923484,-2.9839215,17.046175,0.008950949,-0.038369656,-1.5162039,-0.11857675,-0.08458587,-0.14400354,-0.16773772,0.035676077,-0.046197742,-0.010773117,0.63008654,-1.5861185,-1.0895807,0.24786332,-0.004077792,129.98909,0.20216942,0.31609952,0.2895695,0.13520509,0.098054364,inf,inf,inf,inf,1,1,1,1,3,5,3,3,3,0,1,1,0,0,0
790025200,790024088,40177334,41.1790555,-8.6035789,-4.2946467,-2.9903278,17.0232,0.008950949,-0.038369656,-1.5162039,-0.13428731,-0.0894121,-0.18152472,-0.20786847,0.035676077,-0.046197742,-0.010773117,-0.6289281,2.8540862,-2.7585263,0.2705315,-0.004077792,129.98909,0.22514534,0.30850273,0.28525892,0.13127291,0.09650423,inf,inf,inf,inf,1,1,1,1,3,5,3,3,3,0,1,1,0,0,0
790124589,790123262,40177334,41.1790555,-8.6035789,-4.2948394,-2.9952023,17.002428,0.008950949,-0.038369656,-1.5162039,-0.13549589,-0.08694866,-0.18671991,-0.21394888,0.035676077,-0.046197742,-0.010773117,-0.97310823,1.35512,-0.741049,0.28639394,-0.004077792,129.98909,0.24591637,0.31664285,0.28999358,0.13569748,0.098169625,inf,inf,inf,inf,1,1,1,1,3,5,3,3,3,0,1,1,0,0,0
790223337,790222482,40177334,41.1790555,-8.6035789,-4.299009,-3.0028274,16.981157,0.008950949,-0.038369656,-1.5162039,-0.15588564,-0.13376029,-0.22659196,-0.25296485,0.035676077,-0.046197742,-0.010773117,2.3766918,-2.196666,-1.536113,0.3051796,-0.004077792,129.98909,0.26718712,0.3082881,0.28507528,0.13137566,0.09645295,inf,inf,inf,inf,1,1,1,1,3,5,3,3,3,0,1,1,0,0,0
790322487,790321610,40177334,41.1790555,-8.6035789,-4.3037934,-3.0171413,16.955147,0.008950949,-0.038369656,-1.5162039,-0.18627037,-0.19459303,-0.3376283,-0.36062387,0.035676077,-0.046197742,-0.010773117,-0.21651085,-0.13970341,-1.7308668,0.32960147,-0.004077792,129.98909,0.29319763,0.31642509,0.28980294,0.1359305,0.09812194,inf,inf,inf,inf,1,1,1,1,3,5,3,3,3,0,1,1,0,0,0
790412759,790411768,40177334,41.1790555,-8.6035789,-4.3141603,-3.0350726,16.917389,0.008950949,-0.038369656,-1.5162039,-0.21002369,-0.22785595,-0.51591814,-0.53624755,0.035676077,-0.046197742,-0.010773117,-3.1953223,-0.7197213,0.3092442,0.35487127,-0.004077792,129.98909,0.3309555,0.32425198,0.29399398,0.14035158,0.099596605,inf,inf,inf,inf,1,1,1,1,3,5,3,3,3,0,1,1,0,0,0
790520856,790519957,40177334,41.1790555,-8.6035789,-4.318973,-3.0506847,16.85972,0.008950949,-0.038369656,-1.5162039,-0.2060045,-0.21882044,-0.6979233,-0.70782197,0.035676077,-0.046197742,-0.010773117,0.07716989,2.7501101,-2.2673419,0.38820723,-0.004077792,129.98909,0.3886242,0.3161532,0.2895695,0.13737938,0.09807446,inf,inf,inf,inf,1,1,1,1,3,5,3,3,3,0,1,1,0,0,0
790622123,790619131,40177334,41.1790555,-8.6035789,-4.3275685,-3.0659015,16.792053,0.008950949,-0.038369656,-1.5162039,-0.19795865,-0.199693,-0.76275843,-0.7649503,0.035676077,-0.046197742,-0.010773117,2.1064866,-2.0045035,1.6053114,0.42035362,-0.004077792,129.98909,0.4562912,0.30774263,0.28462818,0.13366944,0.096369185,inf,inf,inf,inf,1,1,1,1,3,5,3,3,3,0,1,1,0,0,0
790719466,790718350,40177334,41.1790555,-8.6035789,-4.330342,-3.0778077,16.729689,0.008950949,-0.038369656,-1.5162039,-0.17439555,-0.18002972,-0.81779104,-0.8042461,0.035676077,-0.046197742,-0.010773117,1.3602183,-2.9953606,1.1475235,0.45394158,-0.004077792,129.98909,0.5186558,0.31592184,0.28934568,0.13870732,0.09804749,inf,inf,inf,inf,1,1,1,1,3,5,3,3,3,0,1,1,0,0,0
790818978,790817479,40177334,41.1790555,-8.6035789,-4.335592,-3.0889974,16.66038,0.008950949,-0.038369656,-1.5162039,-0.1623598,-0.14970462,-0.83870363,-0.8145373,0.035676077,-0.046197742,-0.010773117,1.1049644,-3.156189,1.1019183,0.4880245,-0.004077792,129.98909,0.587965,0.30752057,0.28441396,0.13456853,0.09635318,inf,inf,inf,inf,1,1,1,1,3,5,3,3,3,0,1,1,0,0,0
790917491,790916655,40177334,41.1790555,-8.6035789,-4.3338757,-3.096251,16.592957,0.008950949,-0.038369656,-1.5162039,-0.13968307,-0.11451846,-0.84671825,-0.8088192,0.035676077,-0.046197742,-0.010773117,0.04336685,-2.4203107,3.387922,0.5189635,-0.004077792,129.98909,0.6553879,0.3157039,0.2891267,0.13963409,0.09806044,inf,inf,inf,inf,1,1,1,1,3,5,3,3,3,0,1,1,0,0,0
791017509,791015826,40177334,41.1790555,-8.6035789,-4.3336773,-3.1024363,16.520731,0.008950949,-0.038369656,-1.5162039,-0.1204537,-0.07715192,-0.88955295,-0.8434416,0.035676077,-0.046197742,-0.010773117,-2.4419613,1.8416824,0.31548426,0.5512141,-0.004077792,129.98909,0.72761345,0.3073286,0.28420487,0.13561982,0.09639095,inf,inf,inf,inf,1,1,1,1,3,5,3,3,3,0,1,1,0,0,0
791124947,791124061,40177334,41.1790555,-8.6035789,-4.3303075,-3.1100466,16.439812,0.008950949,-0.038369656,-1.5162039,-0.07035348,-0.06342128,-0.893241,-0.83791584,0.035676077,-0.046197742,-0.010773117,-2.1610851,2.5002367,-2.4133859,0.5852828,-0.004077792,129.98909,0.8085327,0.3162867,0.2895244,0.14191769,0.09829503,inf,inf,inf,inf,1,1,1,1,3,5,3,3,3,0,1,1,0,0,0
791226034,791223189,40177334,41.1790555,-8.6035789,-4.3274083,-3.1149871,16.363907,0.008950949,-0.038369656,-1.5162039,-0.042914923,-0.048511025,-0.81848735,-0.7604319,0.035676077,-0.046197742,-0.010773117,2.8418202,-2.78366,1.2604668,0.6094328,-0.004077792,129.98909,0.88443756,0.30781746,0.28455025,0.1380211,0.09659749,inf,inf,inf,inf,1,1,1,1,3,5,3,3,3,0,1,1,0,0,0
791323134,791322363,40177334,41.1790555,-8.6035789,-4.3188496,-3.1164305,16.303463,0.008950949,-0.038369656,-1.5162039,-0.054380655,-0.016110592,-0.5936351,-0.5313521,0.035676077,-0.046197742,-0.010773117,-1.8235534,-4.6652827,7.3307614,0.63050157,-0.004077792,129.98909,0.94488144,0.31605235,0.2892754,0.14373884,0.09832452,inf,inf,inf,inf,1,1,1,1,3,5,3,3,3,0,1,1,0,0,0
791423270,791421537,40177334,41.1790555,-8.6035789,-4.3141828,-3.115574,16.269249,0.008950949,-0.038369656,-1.5162039,-0.050889798,0.01779371,-0.23576401,-0.17493932,0.035676077,-0.046197742,-0.010773117,-2.9415357,-0.89819396,3.4668376,0.64676446,-0.004077792,129.98909,0.97909546,0.30764598,0.28431377,0.13904028,0.09663329,inf,inf,inf,inf,1,1,1,1,3,5,3,3,3,0,1,1,0,0,0
791521535,791520713,40177334,41.1790555,-8.6035789,-4.3117595,-3.1112726,16.259937,0.008950949,-0.038369656,-1.5162039,-0.070234604,0.045714617,-0.0013746084,0.053638827,0.035676077,-0.046197742,-0.010773117,-0.7283137,-1.1102197,6.3942842,0.6614044,-0.004077792,129.98909,0.98840714,0.31583712,0.28903484,0.14415894,0.09837148,inf,inf,inf,inf,1,1,1,1,3,5,3,3,3,0,1,1,0,0,0
791621416,791619930,40177334,41.1790555,-8.6035789,-4.31226,-3.1058524,16.26082,0.008950949,-0.038369656,-1.5162039,-0.06853771,0.05761814,0.068181306,0.113695726,0.035676077,-0.046197742,-0.010773117,-1.683272,1.4762026,-0.7095468,0.67521685,-0.004077792,129.98909,0.98752403,0.30746576,0.28408498,0.14023481,0.09669995,inf,inf,inf,inf,1,1,1,1,3,5,3,3,3,0,1,1,0,0,0
791719956,791719060,40177334,41.1790555,-8.6035789,-4.3092937,-3.1012328,16.252287,0.008950949,-0.038369656,-1.5162039,-0.07095558,0.061633408,-0.06494401,-0.035714414,0.035676077,-0.046197742,-0.010773117,-3.2300918,2.5858872,-2.9831123,0.69205445,-0.004077792,129.98909,0.9960575,0.31563756,0.28880358,0.14709198,0.098434374,inf,inf,inf,inf,1,1,1,1,3,5,3,3,3,0,1,1,0,0,0
791819584,791818232,40177334,41.1790555,-8.6035789,-4.307527,-3.0964932,16.226398,0.008950949,-0.038369656,-1.5162039,-0.040191717,0.059182767,-0.25497556,-0.23968779,0.035676077,-0.046197742,-0.010773117,1.0394536,-1.703115,-0.71399075,0.7105098,-0.004077792,129.98909,1.021946,0.30720806,0.2838526,0.14412947,0.09674031,inf,inf,inf,inf,1,1,1,1,3,5,3,3,3,0,1,1,0,0,0
791922744,791917405,40177334,41.1790555,-8.6035789,-4.300347,-3.0923824,16.186644,0.008950949,-0.038369656,-1.5162039,-0.048882086,0.06013015,-0.44967577,-0.4400719,0.035676077,-0.046197742,-0.010773117,1.1978699,-0.71895504,-2.2659676,0.73131937,-0.004077792,129.98909,1.0617008,0.3154622,0.28857362,0.15240979,0.09846975,inf,inf,inf,inf,1,1,1,1,3,5,3,3,3,0,1,1,0,0,0
792018366,792016579,40177334,41.1790555,-8.6035789,-4.2971544,-3.0877748,16.136074,0.008950949,-0.038369656,-1.5162039,-0.05094664,0.061619155,-0.52154285,-0.5154215,0.035676077,-0.046197742,-0.010773117,-1.9709202,1.5690039,0.18013881,0.7495811,-0.004077792,129.98909,1.1122704,0.30697277,0.2836333,0.14927217,0.09677583,inf,inf,inf,inf,1,1,1,1,3,5,3,3,3,0,1,1,0,0,0
792116629,792115799,40177334,41.1790555,-8.6035789,-4.292962,-3.0822337,16.097565,0.008950949,-0.038369656,-1.5162039,-0.055323135,0.058700774,-0.4804439,-0.4648857,0.035676077,-0.046197742,-0.010773117,-1.4807255,3.2543097,-2.5891023,0.76858807,-0.004077792,129.98909,1.1507797,0.31533858,0.28835413,0.15755895,0.09850309,inf,inf,inf,inf,1,1,1,1,3,5,3,3,3,0,1,1,0,0,0
792216333,792214927,40177334,41.1790555,-8.6035789,-4.2905207,-3.0760405,16.060204,0.008950949,-0.038369656,-1.5162039,-0.03557639,0.06527855,-0.43953905,-0.41773596,0.035676077,-0.046197742,-0.010773117,0.05094977,2.1263816,0.758107,0.78606564,-0.004077792,129.98909,1.1881409,0.30681014,0.2834115,0.15301913,0.09678343,inf,inf,inf,inf,1,1,1,1,3,5,3,3,3,0,1,1,0,0,0
792324176,792323117,40177334,41.1790555,-8.6035789,-4.278927,-3.0661862,16.030752,0.008950949,-0.038369656,-1.5162039,-0.025895728,0.0789995,-0.44289336,-0.40684485,0.035676077,-0.046197742,-0.010773117,-2.169906,1.1336617,-2.6041405,0.80301607,-0.004077792,129.98909,1.2175922,0.31605613,0.28874657,0.16198745,0.09872446,inf,inf,inf,inf,1,1,1,1,3,5,3,3,3,0,1,1,0,0,0
792424798,792422290,40177334,41.1790555,-8.6035789,-4.2686443,-3.0571787,15.998801,0.008950949,-0.038369656,-1.5162039,0.027404318,0.08093954,-0.4620053,-0.41799915,0.035676077,-0.046197742,-0.010773117,-0.15249959,0.6438347,-1.043684,0.8168064,-0.004077792,129.98909,1.2495432,0.3073626,0.28376102,0.15699969,0.096993126,inf,inf,inf,inf,1,1,1,1,3,5,3,3,3,0,1,1,0,0,0
792522550,792521509,40177334,41.1790555,-8.6035789,-4.2503324,-3.0494144,15.967424,0.008950949,-0.038369656,-1.5162039,0.08502441,0.06019837,-0.50903475,-0.45356658,0.035676077,-0.046197742,-0.010773117,3.7875361,-1.816548,-0.89127976,0.82967234,-0.004077792,129.98909,1.28092,0.3159545,0.28849995,0.16577888,0.098755755,inf,inf,inf,inf,1,1,1,1,3,5,3,3,3,0,1,1,0,0,0
792621892,792620637,40177334,41.1790555,-8.6035789,-4.231974,-3.0428383,15.929178,0.008950949,-0.038369656,-1.5162039,0.10722134,0.056429856,-0.5242745,-0.46186122,0.035676077,-0.046197742,-0.010773117,3.0345519,-0.8288866,-1.647992,0.84182924,-0.004077792,129.98909,1.3191662,0.30721706,0.28352734,0.16024129,0.09700396,inf,inf,inf,inf,1,1,1,1,3,5,3,3,3,0,1,1,0,0,0
792722276,792719811,40177334,41.1790555,-8.6035789,-4.2120256,-3.036106,15.896889,0.008950949,-0.038369656,-1.5162039,0.11863687,0.056525696,-0.550708,-0.47489518,0.035676077,-0.046197742,-0.010773117,0.6689939,1.2145846,-2.9600272,0.8570347,-0.004077792,129.98909,1.3514557,0.3159073,0.28826287,0.16909012,0.098748155,inf,inf,inf,inf,1,1,1,1,3,5,3,3,3,0,1,1,0,0,0
792820356,792818985,40177334,41.1790555,-8.6035789,-4.1935577,-3.0301013,15.857079,0.008950949,-0.038369656,-1.5162039,0.11414501,0.05310147,-0.5775269,-0.49447924,0.035676077,-0.046197742,-0.010773117,-2.3463318,2.377199,0.11019102,0.8683235,-0.004077792,129.98909,1.3912659,0.3071184,0.2833003,0.16291358,0.09699024,inf,inf,inf,inf,1,1,1,1,3,5,3,3,3,0,1,1,0,0,0
792919101,792918159,40177334,41.1790555,-8.6035789,-4.1740065,-3.0218873,15.823349,0.008950949,-0.038369656,-1.5162039,0.10743894,0.059063192,-0.5722037,-0.476741,0.035676077,-0.046197742,-0.010773117,-0.65585065,0.50316036,-0.43437338,0.87727815,-0.004077792,129.98909,1.4249954,0.31590927,0.28803778,0.17171973,0.098710336,inf,inf,inf,inf,1,1,1,1,3,5,3,3,3,0,1,1,0,0,0
793019431,793017378,40177334,41.1790555,-8.6035789,-4.158191,-3.01474,15.78184,0.008950949,-0.038369656,-1.5162039,0.1008091,0.0454516,-0.5909123,-0.48959082,0.035676077,-0.046197742,-0.010773117,-0.91449213,0.3445067,-1.1479272,0.8861206,-0.004077792,129.98909,1.4665041,0.30706254,0.28308022,0.16482148,0.096941255,inf,inf,inf,inf,1,1,1,1,3,5,3,3,3,0,1,1,0,0,0
793117440,793116506,40177334,41.1790555,-8.6035789,-4.1389556,-3.0095868,15.744401,0.008950949,-0.038369656,-1.5162039,0.09440923,0.048027564,-0.6403881,-0.5278603,0.035676077,-0.046197742,-0.010773117,1.4433302,-2.3481333,-0.6627354,0.8929187,-0.004077792,129.98909,1.5039434,0.31594616,0.2878155,0.173591,0.09865465,inf,inf,inf,inf,1,1,1,1,3,5,3,3,3,0,1,1,0,0,0
793216781,793215680,40177334,41.1790555,-8.6035789,-4.124608,-3.0042207,15.697609,0.008950949,-0.038369656,-1.5162039,0.072449505,0.06389426,-0.6286632,-0.51279354,0.035676077,-0.046197742,-0.010773117,-2.3801231,2.579525,-1.8456995,0.90023583,-0.004077792,129.98909,1.5507355,0.32570034,0.29265016,0.1826311,0.10036826,inf,inf,inf,inf,1,1,1,1,3,5,3,3,3,0,1,1,0,0,0
793315676,793314854,40177334,41.1790555,-8.6035789,-4.1072607,-2.9959033,15.661843,0.008950949,-0.038369656,-1.5162039,0.05130981,0.05663955,-0.62427205,-0.49632174,0.035676077,-0.046197742,-0.010773117,-3.1919782,-0.503199,2.6130705,0.9049644,-0.004077792,129.98909,1.5865011,0.31592008,0.28757858,0.1744787,0.09862726,inf,inf,inf,inf,1,1,1,1,3,5,3,3,3,0,1,1,0,0,0
793425023,793423089,40177334,41.1790555,-8.6035789,-4.0943813,-2.9874358,15.614291,0.008950949,-0.038369656,-1.5162039,0.026142163,0.054457624,-0.64058965,-0.50768924,0.035676077,-0.046197742,-0.010773117,-1.3924036,-0.819408,0.46841586,0.91354257,-0.004077792,129.98909,1.6340532,0.30769655,0.28323135,0.1671312,0.09703706,inf,inf,inf,inf,1,1,1,1,3,5,3,3,3,0,1,1,0,0,0
793523939,793522217,40177334,41.1790555,-8.6035789,-4.0854335,-2.9817536,15.5763,0.008950949,-0.038369656,-1.5162039,-0.007657942,0.04448206,-0.6503028,-0.5076775,0.035676077,-0.046197742,-0.010773117,-3.3925316,-0.44641623,0.02731077,0.9238685,-0.004077792,129.98909,1.6720448,0.31678614,0.28797844,0.17548268,0.09876719,inf,inf,inf,inf,1,1,1,1,3,5,3,3,3,0,1,1,0,0,0
793622277,793621391,40177334,41.1790555,-8.6035789,-4.081308,-2.9766421,15.530556,0.008950949,-0.038369656,-1.5162039,-0.04445864,0.04619441,-0.6759192,-0.5291901,0.035676077,-0.046197742,-0.010773117,-4.318222,1.9366709,-1.9055948,0.80927163,-0.12480616,129.98909,1.7177887,0.30784917,0.28306586,0.16530097,0.097038865,inf,inf,inf,inf,1,1,1,1,3,5,3,3,4,0,1,1,0,0,0
793721938,793720566,40177334,41.1790555,-8.6035789,-4.078201,-2.9707506,15.488567,0.008950949,-0.038369656,-1.5162039,-0.06547153,0.04024559,-0.67943454,-0.524393,0.035676077,-0.046197742,-0.010773117,-3.3770247,0.75606906,1.2434087,0.8213708,-0.12480616,129.98909,1.7597771,0.3168622,0.2878099,0.1711373,0.09880294,inf,inf,inf,inf,1,1,1,1,3,5,3,3,4,0,1,1,0,0,0
793821176,793819739,40177334,41.1790555,-8.6035789,-4.0800533,-2.9656968,15.43861,0.008950949,-0.038369656,-1.5162039,-0.0864523,0.032026067,-0.68471026,-0.5280035,0.035676077,-0.046197742,-0.010773117,-3.590694,2.1948326,1.2591424,0.83123976,-0.12480616,129.98909,1.8097343,0.3080011,0.28287274,0.1636417,0.09708091,inf,inf,inf,inf,1,1,1,1,3,5,3,3,4,0,1,1,0,0,0
793920065,793918958,40177334,41.1790555,-8.6035789,-4.0827794,-2.961853,15.39643,0.008950949,-0.038369656,-1.5162039,-0.091515675,0.01469421,-0.69225085,-0.52798206,0.035676077,-0.046197742,-0.010773117,-1.7560713,2.7309728,-0.58186287,0.841154,-0.12480616,129.98909,1.8519144,0.31681144,0.28762132,0.17348994,0.09885988,inf,inf,inf,inf,1,1,1,1,3,5,3,3,4,0,1,1,0,0,0
794024799,794018086,40177334,41.1790555,-8.6035789,-4.088733,-2.9608107,15.346491,0.008950949,-0.038369656,-1.5162039,-0.10300637,-0.0052170046,-0.67955726,-0.5142795,0.035676077,-0.046197742,-0.010773117,0.8562422,1.1947381,-0.65870756,0.85386,-0.12480616,129.98909,1.9018536,0.3080352,0.28269795,0.16828144,0.097146824,inf,inf,inf,inf,1,1,1,1,3,5,3,3,4,0,1,1,0,0,0
794118080,794117260,40177334,41.1790555,-8.6035789,-4.091451,-2.963013,15.305981,0.008950949,-0.038369656,-1.5162039,-0.104739144,-0.027092561,-0.6784142,-0.505465,0.035676077,-0.046197742,-0.010773117,1.15095,2.0273604,-2.3638139,0.8664945,-0.12480616,129.98909,1.9423637,0.31669924,0.28744444,0.18065833,0.098932706,inf,inf,inf,inf,1,1,1,1,3,5,3,3,4,0,1,1,0,0,0
794218168,794216434,40177334,41.1790555,-8.6035789,-4.097186,-2.966988,15.259015,0.008950949,-0.038369656,-1.5162039,-0.10883324,-0.043653384,-0.6824544,-0.50890994,0.035676077,-0.046197742,-0.010773117,2.5071363,0.970583,-2.2172318,0.8771801,-0.12480616,129.98909,1.9893293,0.30796006,0.2825376,0.17539173,0.09721578,inf,inf,inf,inf,1,1,1,1,3,5,3,3,4,0,1,1,0,0,0
794317644,794315607,40177334,41.1790555,-8.6035789,-4.10477,-2.9727936,15.216584,0.008950949,-0.038369656,-1.5162039,-0.1252827,-0.05080987,-0.6506605,-0.47113493,0.035676077,-0.046197742,-0.010773117,0.3190246,1.2839649,-0.11740813,0.8843757,-0.12480616,129.98909,2.0317602,0.3165654,0.2872832,0.18914148,0.09899292,inf,inf,inf,inf,1,1,1,1,3,5,3,3,4,0,1,1,0,0,0
794425130,794423797,40177334,41.1790555,-8.6035789,-4.115586,-2.9804916,15.167862,0.008950949,-0.038369656,-1.5162039,-0.1463411,-0.06255383,-0.6326533,-0.45441392,0.035676077,-0.046197742,-0.010773117,-2.676526,2.9650605,-1.4574751,0.8901647,-0.12480616,129.98909,2.0804825,0.3085064,0.282952,0.18319084,0.09742987,inf,inf,inf,inf,1,1,1,1,3,5,3,3,4,0,1,1,0,0,0
794523851,794522971,40177334,41.1790555,-8.6035789,-4.1283255,-2.98966,15.128025,0.008950949,-0.038369656,-1.5162039,-0.16452418,-0.07963797,-0.63756925,-0.45528048,0.035676077,-0.046197742,-0.010773117,1.42449,0.309743,-0.746092,0.89520884,-0.12480616,129.98909,2.1203194,0.31720844,0.28771815,0.19717,0.099208765,inf,inf,inf,inf,1,1,1,1,3,5,3,3,4,0,1,1,0,0,0
794625046,794622145,40177334,41.1790555,-8.6035789,-4.144209,-2.9996846,15.080184,0.008950949,-0.038369656,-1.5162039,-0.17132816,-0.09678252,-0.6639636,-0.48377085,0.035676077,-0.046197742,-0.010773117,2.6540759,-1.5235063,-0.84729457,0.8997676,-0.12480616,129.98909,2.1681604,0.30831861,0.2827871,0.1883777,0.09746007,inf,inf,inf,inf,1,1,1,1,3,5,3,3,4,1,1,1,0,0,0
794723165,794721318,40177334,41.1790555,-8.6035789,-4.1601543,-3.0118558,15.041736,0.008950949,-0.038369656,-1.5162039,-0.1920727,-0.08816114,-0.58428544,-0.40007192,0.035676077,-0.046197742,-0.010773117,-2.0404308,2.529496,-1.0669429,0.90320706,-0.12480616,129.98909,2.2066088,0.31709522,0.2875523,0.20234786,0.09923755,inf,inf,inf,inf,1,1,1,1,3,5,3,3,4,1,1,1,0,0,0
794823264,794820538,40177334,41.1790555,-8.6035789,-4.1772895,-3.0237267,15.01007,0.008950949,-0.038369656,-1.5162039,-0.18586661,-0.088374235,-0.42413804,-0.24243642,0.035676077,-0.046197742,-0.010773117,-3.0380504,1.6113408,-0.49362972,0.90288836,-0.12480616,129.98909,2.2382746,0.30815494,0.28262833,0.19105022,0.09749556,inf,inf,inf,inf,1,1,1,1,3,5,3,3,4,1,1,1,0,0,0
794920683,794919666,40177334,41.1790555,-8.6035789,-4.196374,-3.0364702,14.995816,0.008950949,-0.038369656,-1.5162039,-0.18229017,-0.08124554,-0.29414645,-0.11152922,0.035676077,-0.046197742,-0.010773117,1.92493,0.86181086,0.19877692,0.9002413,-0.12480616,129.98909,2.2525282,0.3170292,0.2873917,0.20285685,0.099259906,inf,inf,inf,inf,1,1,1,1,3,5,3,3,4,1,1,1,0,0,0
795020371,795018840,40177334,41.1790555,-8.6035789,-4.2143536,-3.0480704,14.980919,0.008950949,-0.038369656,-1.5162039,-0.16467072,-0.07315529,-0.2956565,-0.11796303,0.035676077,-0.046197742,-0.010773117,-0.027581153,0.5307361,-0.081906356,0.8988124,-0.12480616,129.98909,2.2674255,0.30803055,0.28246915,0.1908003,0.097504474,inf,inf,inf,inf,1,1,1,1,3,5,3,3,4,1,1,1,0,0,0
795118926,795118016,40177334,41.1790555,-8.6035789,-4.23252,-3.0603993,14.96344,0.008950949,-0.038369656,-1.5162039,-0.1387951,-0.06906334,-0.3404799,-0.1670245,0.035676077,-0.046197742,-0.010773117,0.8126747,-2.0434117,1.7925607,0.89788646,-0.12480616,129.98909,2.2849045,0.3170082,0.2872356,0.20303036,0.09927056,inf,inf,inf,inf,1,1,1,1,3,5,3,3,4,1,1,1,0,0,0
795218332,795217187,40177334,41.1790555,-8.6035789,-4.248768,-3.0710325,14.937969,0.008950949,-0.038369656,-1.5162039,-0.12344434,-0.059683725,-0.35943514,-0.19473737,0.035676077,-0.046197742,-0.010773117,1.4393189,-0.21585472,-0.6377514,0.8970286,-0.12480616,129.98909,2.3103752,0.3271724,0.29210705,0.2158511,0.10102318,inf,inf,inf,inf,1,1,1,1,3,5,3,3,4,1,1,1,0,0,0
795322359,795316406,40177334,41.1790555,-8.6035789,-4.2671537,-3.0830433,14.917998,0.008950949,-0.038369656,-1.5162039,-0.10111146,-0.0523501,-0.36587283,-0.20207873,0.035676077,-0.046197742,-0.010773117,-0.1256056,0.72444594,-1.5145124,0.89624184,-0.12480616,129.98909,2.330346,0.31693345,0.28706005,0.20259699,0.09927303,inf,inf,inf,inf,1,1,1,1,3,5,3,3,4,1,1,1,0,0,0
795425389,795424555,40177334,41.1790555,-8.6035789,-4.2846255,-3.0940912,14.897588,0.008950949,-0.038369656,-1.5162039,-0.08992097,-0.045689676,-0.27999443,-0.12076094,0.035676077,-0.046197742,-0.010773117,2.982248,-1.3619058,-0.08172994,0.895154,-0.12480616,129.98909,2.3507566,0.3086194,0.28275612,0.19075839,0.097738415,inf,inf,inf,inf,1,1,1,1,3,5,3,3,4,1,1,1,0,0,0
795524762,795523724,40177334,41.1790555,-8.6035789,-4.3007894,-3.1039536,14.889293,0.008950949,-0.038369656,-1.5162039,-0.08471166,-0.030452011,-0.26765174,-0.10706994,0.035676077,-0.046197742,-0.010773117,-2.432988,2.590765,-0.71556616,0.89467275,-0.12480616,129.98909,2.3590517,0.31787336,0.2875441,0.20114037,0.09951315,inf,inf,inf,inf,1,1,1,1,3,5,3,3,4,1,1,1,0,0,0
795624388,795622898,40177334,41.1790555,-8.6035789,-4.314528,-3.1112456,14.875532,0.008950949,-0.038369656,-1.5162039,-0.058484424,-0.019578453,-0.26561376,-0.108603165,0.035676077,-0.046197742,-0.010773117,-0.1978645,-1.4898691,-0.16914566,0.8948315,-0.12480616,129.98909,2.3728123,0.3085686,0.28258857,0.18826415,0.09777424,inf,inf,inf,inf,1,1,1,1,3,5,3,3,4,1,1,1,0,0,0
795718565,795713060,40177334,41.1790555,-8.6035789,-4.326211,-3.116323,14.867937,0.008950949,-0.038369656,-1.5162039,-0.045068596,-0.004515468,-0.26708385,-0.10828129,0.035676077,-0.046197742,-0.010773117,1.9626776,-1.4179341,-0.08006667,0.8936263,-0.12480616,129.98909,2.3804073,0.31698474,0.28772363,0.197435,0.099518694,inf,inf,inf,inf,1,1,1,1,3,5,3,3,4,1,1,1,0,0,0
795824069,795821246,40177334,41.1790555,-8.6035789,-4.3361235,-3.1189032,14.852815,0.008950949,-0.038369656,-1.5162039,-0.024236724,0.027912758,-0.27722433,-0.121550664,0.035676077,-0.046197742,-0.010773117,-0.39215684,0.95144403,-1.0140249,0.89365005,-0.12480616,129.98909,2.3955297,0.30854666,0.28243938,0.18586679,0.09781772,inf,inf,inf,inf,1,1,1,1,3,5,3,3,4,1,1,1,0,0,0
795922939,795920420,40177334,41.1790555,-8.6035789,-4.34562,-3.1173935,14.844848,0.008950949,-0.038369656,-1.5162039,-0.010435697,0.037386514,-0.27013722,-0.11077356,0.035676077,-0.046197742,-0.010773117,2.4485266,-2.7502062,0.8223856,0.8939532,-0.12480616,129.98909,2.4034967,0.3178933,0.28723028,0.1952686,0.09960991,inf,inf,inf,inf,1,1,1,1,3,5,3,3,4,1,1,1,0,0,0
796021002,796019594,40177334,41.1790555,-8.6035789,-4.353036,-3.113785,14.833028,0.008950949,-0.038369656,-1.5162039,-0.011508397,0.0646893,-0.26588342,-0.10822768,0.035676077,-0.046197742,-0.010773117,-2.6526558,2.9546733,-0.42776543,0.8930511,-0.12480616,129.98909,2.4153166,0.3085689,0.28229436,0.18290704,0.09787762,inf,inf,inf,inf,1,1,1,1,3,5,3,3,4,1,1,1,0,0,0
796119806,796118771,40177334,41.1790555,-8.6035789,-4.3639803,-3.1099901,14.826759,0.008950949,-0.038369656,-1.5162039,0.0030520558,0.050573584,-0.26567984,-0.10426444,0.035676077,-0.046197742,-0.010773117,0.91808844,-2.861784,2.1215873,0.8932732,-0.12480616,129.98909,2.421585,0.3179409,0.287086,0.19165027,0.099681064,inf,inf,inf,inf,1,1,1,1,3,5,3,3,4,1,1,1,0,0,0
796219621,796217987,40177334,41.1790555,-8.6035789,-4.372977,-3.1048496,14.813449,0.008950949,-0.038369656,-1.5162039,0.009848279,0.06024338,-0.3119759,-0.15229283,0.035676077,-0.046197742,-0.010773117,2.7964013,-0.42307496,-0.037246935,0.89806896,-0.12480616,129.98909,2.4348955,0.30859935,0.28307673,0.17977339,0.09809447,inf,inf,inf,inf,1,1,1,1,3,5,3,3,4,1,1,1,0,0,0
796319527,796317115,40177334,41.1790555,-8.6035789,-4.382063,-3.0977383,14.797097,0.008950949,-0.038369656,-1.5162039,0.025167689,0.0640073,-0.46394664,-0.29972732,0.035676077,-0.046197742,-0.010773117,2.6618671,-1.7864406,-2.9108503,0.9045667,-0.12480616,129.98909,2.4512472,0.31798437,0.28791732,0.18824762,0.099901326,inf,inf,inf,inf,1,1,1,1,3,5,3,3,4,1,1,1,0,0,0
796417680,796416291,40177334,41.1790555,-8.6035789,-4.387097,-3.090077,14.761365,0.008950949,-0.038369656,-1.5162039,0.03908198,0.07125189,-0.56863743,-0.40566802,0.035676077,-0.046197742,-0.010773117,1.0545279,-1.4861714,0.85585016,0.90695095,-0.12480616,129.98909,2.4869795,0.30864897,0.28293896,0.17739475,0.09815829,inf,inf,inf,inf,1,1,1,1,3,5,3,3,4,1,1,1,0,0,0
796525728,796524478,40177334,41.1790555,-8.6035789,-4.3914156,-3.0805843,14.727153,0.008950949,-0.038369656,-1.5162039,0.051945843,0.07419851,-0.5671422,-0.3943823,0.035676077,-0.046197742,-0.010773117,2.290882,0.16122696,-0.48779395,0.9070767,-0.12480616,129.98909,2.5211916,0.31895095,0.2874393,0.18627107,0.10000481,inf,inf,inf,inf,1,1,1,1,3,5,3,3,4,1,1,1,0,0,0
796620102,796614636,40177334,41.1790555,-8.6035789,-4.392061,-3.0723233,14.69546,0.008950949,-0.038369656,-1.5162039,0.073933974,0.074710235,-0.4703281,-0.29765326,0.035676077,-0.046197742,-0.010773117,3.0851092,-1.6940295,0.9522775,0.9054047,-0.12480616,129.98909,2.552884,0.32841057,0.29273462,0.19335176,0.10177036,inf,inf,inf,inf,1,1,1,1,3,5,3,3,4,1,1,1,0,0,0
796723864,796722826,40177334,41.1790555,-8.6035789,-4.3926086,-3.0568652,14.683127,0.008950949,-0.038369656,-1.5162039,0.071977265,0.09034153,-0.32120705,-0.13937522,0.035676077,-0.046197742,-0.010773117,2.267625,0.6799774,0.34329855,0.90367293,-0.12480616,129.98909,2.565217,0.3189084,0.28727198,0.18158224,0.10004816,inf,inf,inf,inf,1,1,1,1,3,5,3,3,4,1,1,1,0,0,0
796814354,796812984,40177334,41.1790555,-8.6035789,-4.391092,-3.0449219,14.673802,0.008950949,-0.038369656,-1.5162039,0.08892851,0.07628449,-0.2892269,-0.10750511,0.035676077,-0.046197742,-0.010773117,0.5815034,-3.374417,1.0765865,0.9044812,-0.12480616,129.98909,2.574542,0.30872852,0.28265297,0.16998963,0.09827056,inf,inf,inf,inf,1,1,1,1,3,5,3,3,4,1,1,1,0,0,0
796922443,796921174,40177334,41.1790555,-8.6035789,-4.3922544,-3.0312374,14.6633415,0.008950949,-0.038369656,-1.5162039,0.07482147,0.08921216,-0.2728589,-0.091986455,0.035676077,-0.046197742,-0.010773117,-3.385436,2.2694094,0.6524447,0.9045253,-0.12480616,129.98909,2.585003,0.31895667,0.28812727,0.17734554,0.10027278,inf,inf,inf,inf,1,1,1,1,3,5,3,3,4,1,1,1,0,0,0
797023098,797020347,40177334,41.1790555,-8.6035789,-4.389763,-3.0195796,14.650938,0.008950949,-0.038369656,-1.5162039,0.10129349,0.08906261,-0.22291236,-0.04842787,0.035676077,-0.046197742,-0.010773117,-0.3338925,2.0610533,-1.9581833,0.9047154,-0.12480616,129.98909,2.5974064,0.3095327,0.2831106,0.16717252,0.098505065,inf,inf,inf,inf,1,1,1,1,3,5,3,3,4,1,1,1,0,0,0
797120425,797119567,40177334,41.1790555,-8.6035789,-4.387761,-3.0084558,14.646902,0.008950949,-0.038369656,-1.5162039,0.11814576,0.068063654,-0.20744656,-0.03527226,0.035676077,-0.046197742,-0.010773117,1.2873942,-2.22205,0.81952477,0.9077375,-0.12480616,129.98909,2.6014423,0.31889588,0.2879817,0.17349042,0.10032767,inf,inf,inf,inf,1,1,1,1,3,5,3,3,4,1,1,1,0,0,0
797220073,797218695,40177334,41.1790555,-8.6035789,-4.3819785,-2.9980361,14.635641,0.008950949,-0.038369656,-1.5162039,0.1328578,0.077508934,-0.22393394,-0.059547417,0.035676077,-0.046197742,-0.010773117,-0.6902813,1.7859426,-0.7800559,0.9131508,-0.12480616,129.98909,2.6127033,0.30953914,0.28296992,0.16398254,0.09855004,inf,inf,inf,inf,1,1,1,1,3,5,3,3,4,1,1,1,0,0,0
797318742,797317869,40177334,41.1790555,-8.6035789,-4.3747196,-2.9873264,14.627583,0.008950949,-0.038369656,-1.5162039,0.15120706,0.082349144,-0.22897203,-0.06706981,0.035676077,-0.046197742,-0.010773117,0.8054249,-0.92503995,-0.027702233,0.91927767,-0.12480616,129.98909,2.6207619,0.3188511,0.2878417,0.17033476,0.10037368,inf,inf,inf,inf,1,1,1,1,3,5,3,3,4,1,1,1,0,0,0
797417893,797417042,40177334,41.1790555,-8.6035789,-4.3638706,-2.9767935,14.613329,0.008950949,-0.038369656,-1.5162039,0.16070117,0.08158963,-0.19427986,-0.04191936,0.035676077,-0.046197742,-0.010773117,-3.8672187,-0.8444779,2.229406,0.9223891,-0.12480616,129.98909,2.6350155,0.32894883,0.29282492,0.17646384,0.1021887,inf,inf,inf,inf,1,1,1,1,3,5,3,3,4,1,1,1,0,0,0
797526335,797525277,40177334,41.1790555,-8.6035789,-4.3521595,-2.9615538,14.609886,0.008950949,-0.038369656,-1.5162039,0.16912064,0.09164302,-0.18065378,-0.029674413,0.035676077,-0.046197742,-0.010773117,0.43763056,1.2435032,-1.1230575,0.9242448,-0.12480616,129.98909,2.6384583,0.31958756,0.28829643,0.16741975,0.100592904,inf,inf,inf,inf,1,1,1,1,3,5,3,3,4,1,1,1,0,0,0
797622694,797615435,40177334,41.1790555,-8.6035789,-4.340392,-2.9493833,14.601969,0.008950949,-0.038369656,-1.5162039,0.17722787,0.0930573,-0.17796613,-0.032408208,0.035676077,-0.046197742,-0.010773117,-0.6292717,-1.2030123,0.13800262,0.9259158,-0.12480616,129.98909,2.6463757,0.3094578,0.28267384,0.15826496,0.09862716,inf,inf,inf,inf,1,1,1,1,3,5,3,3,4,1,1,1,0,0,0
797724484,797723579,40177334,41.1790555,-8.6035789,-4.3266807,-2.9322698,14.598771,0.008950949,-0.038369656,-1.5162039,0.15722221,0.11045124,-0.19169755,-0.046404816,0.035676077,-0.046197742,-0.010773117,-2.756282,2.6558022,-3.5915844,0.9279542,-0.12480616,129.98909,2.6495733,0.31952015,0.28817347,0.16439734,0.10064799,inf,inf,inf,inf,1,1,1,1,3,5,3,3,4,1,1,1,0,0,0
797824295,797822753,40177334,41.1790555,-8.6035789,-4.313042,-2.9186065,14.586786,0.008950949,-0.038369656,-1.5162039,0.17357855,0.08439536,-0.21533117,-0.077427015,0.035676077,-0.046197742,-0.010773117,1.1982877,-3.05986,-0.6418747,0.92914146,-0.12480616,129.98909,2.6615582,0.3101735,0.28312635,0.15606537,0.09884997,inf,inf,inf,inf,1,1,1,1,3,5,3,3,4,1,1,1,0,0,0
797922786,797921927,40177334,41.1790555,-8.6035789,-4.2998796,-2.9031048,14.58038,0.008950949,-0.038369656,-1.5162039,0.16371416,0.09473407,-0.19832374,-0.06138163,0.035676077,-0.046197742,-0.010773117,-0.30894634,3.238112,-2.4232252,0.92972624,-0.12480616,129.98909,2.667964,0.31936306,0.28802183,0.16150984,0.10067381,inf,inf,inf,inf,1,1,1,1,3,5,3,3,4,1,1,1,0,0,0
798022923,798021146,40177334,41.1790555,-8.6035789,-4.285873,-2.890672,14.567335,0.008950949,-0.038369656,-1.5162039,0.15837324,0.069153816,-0.21109165,-0.081303164,0.035676077,-0.046197742,-0.010773117,0.3547129,-2.095239,1.3189502,0.930637,-0.12480616,129.98909,2.6810093,0.31005928,0.28297615,0.15355015,0.098873496,inf,inf,inf,inf,1,1,1,1,3,5,3,3,4,1,1,1,0,0,0
798121231,798120274,40177334,41.1790555,-8.6035789,-4.269959,-2.8792996,14.558024,0.008950949,-0.038369656,-1.5162039,0.15553932,0.055470876,-0.21551125,-0.08692496,0.035676077,-0.046197742,-0.010773117,-1.5989853,1.4748771,-2.930296,0.9309386,-0.12480616,129.98909,2.69032,0.3191794,0.28787574,0.1587705,0.100694194,inf,inf,inf,inf,1,1,1,1,3,5,3,3,4,1,1,1,0,0,0
798220464,798219448,40177334,41.1790555,-8.6035789,-4.2553782,-2.870774,14.541184,0.008950949,-0.038369656,-1.5162039,0.13383701,0.036645286,-0.2026086,-0.082982175,0.035676077,-0.046197742,-0.010773117,2.3349562,-2.6608567,2.3339045,0.9304471,-0.12480616,129.98909,2.70716,0.32896578,0.2928882,0.16405827,0.102515936,inf,inf,inf,inf,1,1,1,1,3,5,3,3,4,1,1,1,0,0,0
798319535,798318622,40177334,41.1790555,-8.6035789,-4.2385125,-2.8597548,14.530832,0.008950949,-0.038369656,-1.5162039,0.13744381,0.054089203,-0.2338151,-0.11388166,0.035676077,-0.046197742,-0.010773117,-1.1875448,0.19281502,-1.5582886,0.92871755,-0.12480616,129.98909,2.7175121,0.31891218,0.28770775,0.15619324,0.10070151,inf,inf,inf,inf,1,1,1,1,3,5,3,3,4,1,1,1,0,0,0
798418762,798417795,40177334,41.1790555,-8.6035789,-4.223741,-2.8498693,14.513655,0.008950949,-0.038369656,-1.5162039,0.12397649,0.05463881,-0.22510801,-0.112526655,0.035676077,-0.046197742,-0.010773117,1.1635412,-2.1478393,0.7219588,0.9270657,-0.12480616,129.98909,2.7346897,0.328599,0.29272008,0.161342,0.10251882,inf,inf,inf,inf,1,1,1,1,3,5,3,3,4,1,1,1,0,0,0
798517896,798517015,40177334,41.1790555,-8.6035789,-4.209057,-2.8396606,14.504815,0.008950949,-0.038369656,-1.5162039,0.09692893,0.06737341,-0.21244593,-0.09813831,0.035676077,-0.046197742,-0.010773117,-2.956342,2.689205,-2.693246,0.92588377,-0.12480616,129.98909,2.7435293,0.31857833,0.28751224,0.15375473,0.10069215,inf,inf,inf,inf,1,1,1,1,3,5,3,3,4,1,1,1,0,0,0
798617118,798616143,40177334,41.1790555,-8.6035789,-4.197093,-2.831217,14.49188,0.008950949,-0.038369656,-1.5162039,0.07731275,0.06211322,-0.21429595,-0.10405344,0.035676077,-0.046197742,-0.010773117,-0.2361797,0.38994786,-0.30328858,0.9227177,-0.12480616,129.98909,2.756464,0.32815564,0.2925223,0.15859646,0.10251609,inf,inf,inf,inf,1,1,1,1,3,5,3,3,4,1,1,1,0,0,0
798716446,798715319,40177334,41.1790555,-8.6035789,-4.184982,-2.8244584,14.484557,0.008950949,-0.038369656,-1.5162039,0.07729084,0.04004477,-0.2142942,-0.10107172,0.035676077,-0.046197742,-0.010773117,4.5251966,-0.45865795,-0.7549896,0.9208616,-0.12480616,129.98909,2.7637873,0.3182326,0.28731984,0.1514469,0.100694396,inf,inf,inf,inf,1,1,1,1,3,5,3,3,4,1,1,1,0,0,0
798821690,798814490,40177334,41.1790555,-8.6035789,-4.174461,-2.820291,14.47253,0.008950949,-0.038369656,-1.5162039,0.059319746,0.023502756,-0.17895819,-0.06882716,0.035676077,-0.046197742,-0.010773117,0.57087487,-1.3552575,-1.1997116,0.9197269,-0.12480616,129.98909,2.775814,0.30923536,0.28231317,0.14489713,0.098897144,inf,inf,inf,inf,1,1,1,1,3,5,3,3,4,1,1,1,0,0,0
798919095,798913664,40177334,41.1790555,-8.6035789,-4.167989,-2.8178859,14.473179,0.008950949,-0.038369656,-1.5162039,0.0017270144,0.022541573,-0.1514192,-0.03657074,0.035676077,-0.046197742,-0.010773117,-4.473887,2.2217944,-0.7087309,0.9188881,-0.12480616,129.98909,2.7751656,0.31804863,0.2872125,0.149444,0.1007224,inf,inf,inf,inf,1,1,1,1,3,5,3,3,4,1,1,1,0,0,0
799023246,799021856,40177334,41.1790555,-8.6035789,-4.16424,-2.8173792,14.467982,0.008950949,-0.038369656,-1.5162039,-0.010087745,-0.012491818,-0.13556089,-0.023940133,0.035676077,-0.046197742,-0.010773117,2.4885173,-1.7945383,0.9445252,0.9145423,-0.12480616,129.98909,2.7803621,0.3098249,0.2827899,0.14344329,0.09910604,inf,inf,inf,inf,1,1,1,1,3,5,3,3,4,1,1,1,0,0,0
799121987,799121027,40177334,41.1790555,-8.6035789,-4.159808,-2.8176682,14.467465,0.008950949,-0.038369656,-1.5162039,-0.022913676,-0.037280947,-0.18915859,-0.07369274,0.035676077,-0.046197742,-0.010773117,2.56535,-1.8009946,0.1903707,0.9058985,-0.12480616,129.98909,2.780879,0.3186159,0.28771275,0.14806496,0.1009379,inf,inf,inf,inf,1,1,1,1,3,5,3,3,4,1,1,1,0,0,0
799221505,799220201,40177334,41.1790555,-8.6035789,-4.1579747,-2.820275,14.457129,0.008950949,-0.038369656,-1.5162039,-0.05032161,-0.05036444,-0.18244474,-0.07029546,0.035676077,-0.046197742,-0.010773117,-0.6796676,-3.179947,2.7025957,0.89056253,-0.12480616,129.98909,2.791216,0.32797092,0.29274094,0.15286237,0.10275875,inf,inf,inf,inf,1,1,1,1,3,5,3,3,4,1,1,1,0,0,0
799324711,799319375,40177334,41.1790555,-8.6035789,-4.156612,-2.826293,14.457888,0.008950949,-0.038369656,-1.5162039,-0.045157548,-0.045271497,-0.18150993,-0.061504938,0.035676077,-0.046197742,-0.010773117,5.785437,-0.33491677,1.8055711,0.87160313,-0.12480616,129.98909,2.7904568,0.3182762,0.28755373,0.14656791,0.100923814,inf,inf,inf,inf,1,1,1,1,3,5,3,3,4,1,1,1,0,0,0
799419575,799418594,40177334,41.1790555,-8.6035789,-4.1570883,-2.83352,14.449866,0.008950949,-0.038369656,-1.5162039,-0.06377012,-0.056715358,-0.21603282,-0.09658493,0.035676077,-0.046197742,-0.010773117,-3.3745158,1.4824909,-1.5330068,0.84969395,-0.12480616,129.98909,2.7984781,0.32754707,0.2925845,0.15124774,0.10274345,inf,inf,inf,inf,1,1,1,1,3,5,3,3,4,1,1,1,0,0,0
799518598,799517721,40177334,41.1790555,-8.6035789,-4.159128,-2.8430371,14.453274,0.008950949,-0.038369656,-1.5162039,-0.10810054,-0.06554148,-0.16014026,-0.032011114,0.035676077,-0.046197742,-0.010773117,-5.510669,0.681091,0.84242344,0.8252794,-0.12480616,129.98909,2.7950706,0.31795442,0.28741276,0.14519773,0.100913204,inf,inf,inf,inf,1,1,1,1,3,5,3,3,4,1,1,1,0,0,0
799627956,799625911,40177334,41.1790555,-8.6035789,-4.1654396,-2.8540967,14.450998,0.008950949,-0.038369656,-1.5162039,-0.11542346,-0.078116335,-0.17963614,-0.048886403,0.035676077,-0.046197742,-0.010773117,-2.324099,-0.053798903,1.6448331,0.7947919,-0.12480616,129.98909,2.797346,0.30981395,0.28296766,0.13990158,0.09926241,inf,inf,inf,inf,1,1,1,1,3,5,3,3,4,1,1,1,0,0,0
799716940,799716069,40177334,41.1790555,-8.6035789,-4.171568,-2.8636503,14.456729,0.008950949,-0.038369656,-1.5162039,-0.1358859,-0.08418985,-0.16179523,-0.022247413,0.035676077,-0.046197742,-0.010773117,2.1011627,-0.031922758,3.2005332,0.76668054,-0.12480616,129.98909,2.7916155,0.3176403,0.28727907,0.1440443,0.10090093,inf,inf,inf,inf,1,1,1,1,3,5,3,3,4,1,1,1,0,0,0
799826138,799824307,40177334,41.1790555,-8.6035789,-4.1832666,-2.87644,14.456806,0.008950949,-0.038369656,-1.5162039,-0.1586015,-0.0984698,-0.17464015,-0.031850047,0.035676077,-0.046197742,-0.010773117,2.040336,1.8056289,-0.7709201,0.7287591,-0.12480616,129.98909,2.7915382,0.3095452,0.28284618,0.13895816,0.09925548,inf,inf,inf,inf,1,1,1,1,3,5,3,3,4,1,1,1,0,0,0
799919774,799914462,40177334,41.1790555,-8.6035789,-4.1938124,-2.891367,14.462014,0.008950949,-0.038369656,-1.5162039,-0.18364662,-0.10788741,-0.20804833,-0.05650164,0.035676077,-0.046197742,-0.010773117,-1.6050922,3.6149182,-4.266219,0.69665164,-0.12480616,129.98909,2.7863302,0.317314,0.2871546,0.1432429,0.10088481,inf,inf,inf,inf,1,1,1,1,3,5,3,3,4,1,1,1,0,0,0
800025600,800022606,40177334,41.1790555,-8.6035789,-4.2105684,-2.908358,14.459987,0.008950949,-0.038369656,-1.5162039,-0.21618553,-0.116507284,-0.21431188,-0.061061803,0.035676077,-0.046197742,-0.010773117,-3.2036376,-1.6715411,2.1461987,0.65701324,-0.12480616,129.98909,2.7883577,0.3092842,0.28272164,0.13854334,0.09923475,inf,inf,inf,inf,1,1,1,1,3,5,3,3,4,1,1,1,0,0,0
800122617,800121779,40177334,41.1790555,-8.6035789,-4.227002,-2.9278657,14.462279,0.008950949,-0.038369656,-1.5162039,-0.24849325,-0.09311792,-0.19293597,-0.03242701,0.035676077,-0.046197742,-0.010773117,-2.5409977,3.503606,2.2573738,0.61651814,-0.12480616,129.98909,2.786065,0.31780112,0.287661,0.1433915,0.10105973,inf,inf,inf,inf,1,1,1,1,3,5,3,3,4,1,1,1,0,0,0
800224538,800220953,40177334,41.1790555,-8.6035789,-4.2454715,-2.9442554,14.459586,0.008950949,-0.038369656,-1.5162039,-0.24204837,-0.091666356,-0.17018576,-0.00887882,0.035676077,-0.046197742,-0.010773117,2.093149,-2.1262558,0.98548,0.57071483,-0.12480616,129.98909,2.7887583,0.30901688,0.28260258,0.13825737,0.09922575,inf,inf,inf,inf,1,1,1,1,3,5,3,3,4,1,1,1,0,0,0
800321071,800320172,40177334,41.1790555,-8.6035789,-4.259921,-2.9606917,14.466829,0.008950949,-0.038369656,-1.5162039,-0.22257636,-0.08592442,-0.17595184,-0.0071397396,0.035676077,-0.046197742,-0.010773117,0.5920486,-1.895984,-0.8306496,0.52308726,-0.12480616,129.98909,2.7815151,0.31748033,0.28753737,0.14314498,0.10105372,inf,inf,inf,inf,1,1,1,1,3,5,3,3,4,1,1,1,0,0,0
800425986,800419300,40177334,41.1790555,-8.6035789,-4.2779684,-2.975031,14.4669895,0.008950949,-0.038369656,-1.5162039,-0.2451529,-0.068057165,-0.16408631,0.0046590194,0.035676077,-0.046197742,-0.010773117,1.4661914,0.3363428,1.3642465,0.47644773,-0.12480616,129.98909,2.781355,0.30875438,0.28247803,0.13835554,0.09920489,inf,inf,inf,inf,1,1,1,1,3,5,3,3,4,1,1,1,0,0,0
800520616,800518473,40177334,41.1790555,-8.6035789,-4.2985005,-2.9921942,14.472811,0.008950949,-0.038369656,-1.5162039,-0.26554316,-0.06044588,-0.14803863,0.024717435,0.035676077,-0.046197742,-0.010773117,-2.224912,0.2595196,1.8567159,0.43118003,-0.12480616,129.98909,2.7755337,0.3171728,0.28741133,0.14349842,0.10103989,inf,inf,inf,inf,1,1,1,1,3,5,3,3,4,1,1,1,0,0,0
800623484,800617647,40177334,41.1790555,-8.6035789,-4.3221316,-3.0061421,14.471684,0.008950949,-0.038369656,-1.5162039,-0.2783349,-0.059064258,-0.16089149,0.008743175,0.035676077,-0.046197742,-0.010773117,-0.8135843,-2.5939796,0.017777022,0.38756883,-0.12480616,129.98909,2.77666,0.30848348,0.2823502,0.13890015,0.09919426,inf,inf,inf,inf,1,1,1,1,3,5,3,3,4,1,1,1,0,0,0
800717788,800716821,40177334,41.1790555,-8.6035789,-4.347861,-3.0218492,14.477556,0.008950949,-0.038369656,-1.5162039,-0.2924679,-0.0484858,-0.16807142,0.005050602,0.035676077,-0.046197742,-0.010773117,0.52412635,0.6460744,-0.49153247,0.34615648,-0.12480616,129.98909,2.7707882,0.31686294,0.28728345,0.14458074,0.10101989,inf,inf,inf,inf,1,1,1,1,3,5,3,3,4,1,1,1,0,0,0
800818606,800816040,40177334,41.1790555,-8.6035789,-4.375905,-3.034101,14.473195,0.008950949,-0.038369656,-1.5162039,-0.3096368,-0.025492668,-0.16569047,0.0016216154,0.035676077,-0.046197742,-0.010773117,1.2255052,1.6640308,-0.11221338,0.30658683,-0.12480616,129.98909,2.7751493,0.32579005,0.29232964,0.15048465,0.10283872,inf,inf,inf,inf,1,1,1,1,3,5,3,3,4,1,1,1,0,0,0
800925650,800924183,40177334,41.1790555,-8.6035789,-4.403806,-3.0512836,14.476448,0.008950949,-0.038369656,-1.5162039,-0.31470388,-0.01569756,-0.18750265,-0.01709878,0.035676077,-0.046197742,-0.010773117,-1.2946229,3.9232564,-1.4807783,0.2655558,-0.12480616,129.98909,2.7718964,0.31729558,0.28774944,0.14665096,0.10117026,inf,inf,inf,inf,1,1,1,1,3,5,3,3,4,1,1,1,0,0,0
801025140,801023357,40177334,41.1790555,-8.6035789,-4.431232,-3.0630064,14.469146,0.008950949,-0.038369656,-1.5162039,-0.30348295,-0.005650728,-0.19673738,-0.0317268,0.035676077,-0.046197742,-0.010773117,1.1198493,1.7898585,-1.9860402,0.22802813,-0.12480616,129.98909,2.7791986,0.30856946,0.28263932,0.14230324,0.09930457,inf,inf,inf,inf,1,1,1,1,3,5,3,3,4,1,1,1,0,0,0
801123819,801122531,40177334,41.1790555,-8.6035789,-4.457442,-3.0768712,14.468607,0.008950949,-0.038369656,-1.5162039,-0.30531448,-0.00077707117,-0.19621575,-0.0294948,0.035676077,-0.046197742,-0.010773117,-0.58209455,3.1012216,0.27300712,0.19352265,-0.12480616,129.98909,2.7797375,0.31695166,0.28758803,0.14877282,0.1011177,inf,inf,inf,inf,1,1,1,1,3,5,3,3,4,1,1,1,0,0,0
801222692,801221750,40177334,41.1790555,-8.6035789,-4.4850316,-3.0859067,14.45763,0.008950949,-0.038369656,-1.5162039,-0.30502173,0.018108843,-0.24440373,-0.08488456,0.035676077,-0.046197742,-0.010773117,-0.96650934,3.8667233,-0.06348559,0.15901831,-0.12480616,129.98909,2.7907143,0.32592073,0.29264244,0.15539113,0.102922514,inf,inf,inf,inf,1,1,1,1,3,5,3,3,4,1,1,1,0,0,0
801321846,801320878,40177334,41.1790555,-8.6035789,-4.5111084,-3.0944803,14.453159,0.008950949,-0.038369656,-1.5162039,-0.28616223,0.020175805,-0.24189915,-0.079993024,0.035676077,-0.046197742,-0.010773117,0.45008513,2.835082,-2.9036195,0.12352609,-0.12480616,129.98909,2.795185,0.31657252,0.28738472,0.15109056,0.10104297,inf,inf,inf,inf,1,1,1,1,3,5,3,3,4,1,1,1,0,0,0
801421476,801420052,40177334,41.1790555,-8.6035789,-4.5353656,-3.0992541,14.440236,0.008950949,-0.038369656,-1.5162039,-0.25459516,0.027087055,-0.21876208,-0.06342759,0.035676077,-0.046197742,-0.010773117,-0.47738445,-1.7334074,0.56394696,0.08824306,-0.12480616,129.98909,2.8081083,0.3255539,0.29243505,0.15825242,0.102837466,inf,inf,inf,inf,1,1,1,1,3,5,3,3,4,1,1,1,0,0,0
801520490,801519225,40177334,41.1790555,-8.6035789,-4.555935,-3.1065652,14.436509,0.008950949,-0.038369656,-1.5162039,-0.23163521,0.04311429,-0.2577003,-0.09830037,0.035676077,-0.046197742,-0.010773117,-1.4455285,-1.7343994,-0.09154258,0.05371488,-0.12480616,129.98909,2.8118353,0.31621125,0.28718394,0.15353386,0.1009541,inf,inf,inf,inf,1,1,1,1,3,5,3,3,4,1,1,1,0,0,0
801621088,801618400,40177334,41.1790555,-8.6035789,-4.57549,-3.1089578,14.423107,0.008950949,-0.038369656,-1.5162039,-0.21120393,0.07018952,-0.24297583,-0.08821349,0.035676077,-0.046197742,-0.010773117,0.7659688,-3.3495739,0.83779246,0.020954076,-0.12480616,129.98909,2.8252373,0.30756006,0.28209198,0.14904913,0.09908765,inf,inf,inf,inf,1,1,1,1,3,5,3,3,4,1,1,1,0,0,0
801719790,801717618,40177334,41.1790555,-8.6035789,-4.59589,-3.1097405,14.417794,0.008950949,-0.038369656,-1.5162039,-0.19035795,0.11211705,-0.23542392,-0.07687066,0.035676077,-0.046197742,-0.010773117,0.43468326,-3.491834,1.3246275,-0.009679997,-0.12480616,129.98909,2.8305502,0.3159527,0.28702304,0.15636282,0.10090163,inf,inf,inf,inf,1,1,1,1,3,5,3,3,4,1,1,1,0,0,0
801817852,801816746,40177334,41.1790555,-8.6035789,-4.6140766,-3.104304,14.403568,0.008950949,-0.038369656,-1.5162039,-0.17565212,0.15119973,-0.25364512,-0.10121567,0.035676077,-0.046197742,-0.010773117,-2.3556886,0.46619925,2.0224257,-0.03879577,-0.12480616,129.98909,2.8447762,0.32501742,0.2920613,0.16423015,0.10270633,inf,inf,inf,inf,1,1,1,1,3,5,3,3,4,1,1,1,0,0,0
801925809,801924936,40177334,41.1790555,-8.6035789,-4.6302524,-3.0969496,14.397994,0.008950949,-0.038369656,-1.5162039,-0.15859987,0.18831085,-0.20982918,-0.055088226,0.035676077,-0.046197742,-0.010773117,-0.79897356,-0.8783084,0.71914923,-0.07074253,-0.12480616,129.98909,2.8503504,0.3164661,0.28745064,0.15974966,0.10103796,inf,inf,inf,inf,1,1,1,1,3,5,3,3,4,1,1,1,0,0,0
802016780,802015093,40177334,41.1790555,-8.6035789,-4.6421776,-3.087098,14.384974,0.008950949,-0.038369656,-1.5162039,-0.13337238,0.19365276,-0.19735226,-0.05062259,0.035676077,-0.046197742,-0.010773117,-0.2624575,0.54892075,-1.0587659,-0.09585675,-0.12480616,129.98909,2.863371,0.32478875,0.29185966,0.16700976,0.10265435,inf,inf,inf,inf,1,1,1,1,3,5,3,3,4,1,1,1,0,0,0
802124364,802123328,40177334,41.1790555,-8.6035789,-4.657601,-3.0754886,14.380734,0.008950949,-0.038369656,-1.5162039,-0.10800186,0.21010248,-0.18235773,-0.03466789,0.035676077,-0.046197742,-0.010773117,0.1534962,2.2208602,-2.1343517,-0.12526573,-0.12480616,129.98909,2.86761,0.3162129,0.28725794,0.16231063,0.10098465,inf,inf,inf,inf,1,1,1,1,3,5,3,3,4,1,1,1,0,0,0
802223471,802222456,40177334,41.1790555,-8.6035789,-4.6696043,-3.0626194,14.369579,0.008950949,-0.038369656,-1.5162039,-0.09132971,0.20589408,-0.17342171,-0.033662174,0.035676077,-0.046197742,-0.010773117,1.3347663,2.8211575,-0.2665238,-0.14946531,-0.12480616,129.98909,2.878765,0.32546502,0.29230726,0.17038386,0.10278777,inf,inf,inf,inf,1,1,1,1,3,5,3,3,4,1,1,1,0,0,0
802322455,802321630,40177334,41.1790555,-8.6035789,-4.6812787,-3.050709,14.372129,0.008950949,-0.038369656,-1.5162039,-0.07618338,0.19507109,-0.15007935,-0.006161394,0.035676077,-0.046197742,-0.010773117,0.15996005,-4.0341167,1.6404442,-0.17238186,-0.12480616,129.98909,2.876215,0.31593168,0.28703728,0.1641914,0.10091405,inf,inf,inf,inf,1,1,1,1,3,5,3,3,4,1,1,1,0,0,0
802421788,802420803,40177334,41.1790555,-8.6035789,-4.6920133,-3.0382278,14.367717,0.008950949,-0.038369656,-1.5162039,-0.08348162,0.18895756,-0.1388928,0.0010975697,0.035676077,-0.046197742,-0.010773117,0.8413987,1.6134906,1.4335917,-0.19013721,-0.12480616,129.98909,2.8806276,0.32524478,0.29208416,0.17230088,0.10271769,inf,inf,inf,inf,1,1,1,1,3,5,3,3,4,1,1,1,0,0,0
802520849,802519978,40177334,41.1790555,-8.6035789,-4.701598,-3.023596,14.376318,0.008950949,-0.038369656,-1.5162039,-0.08136305,0.19175164,-0.13533519,0.0119604925,0.035676077,-0.046197742,-0.010773117,-2.0263464,0.80331755,0.9323884,-0.20707017,-0.12480616,129.98909,2.8720264,0.31568614,0.28683355,0.16581357,0.100854084,inf,inf,inf,inf,1,1,1,1,3,5,3,3,4,1,1,1,0,0,0
802620691,802619196,40177334,41.1790555,-8.6035789,-4.7109165,-3.0064285,14.378437,0.008950949,-0.038369656,-1.5162039,-0.07636987,0.20522998,-0.1267374,0.0203135,0.035676077,-0.046197742,-0.010773117,-0.18588877,-0.19557454,-0.08487417,-0.22471482,-0.12480616,129.98909,2.8699074,0.32505968,0.29187047,0.1739116,0.102664836,inf,inf,inf,inf,1,1,1,1,3,5,3,3,4,1,1,1,0,0,0
802719462,802718324,40177334,41.1790555,-8.6035789,-4.7213106,-2.9896858,14.387645,0.008950949,-0.038369656,-1.5162039,-0.08240109,0.21321926,-0.13032381,0.023999795,0.035676077,-0.046197742,-0.010773117,0.15435536,-0.08257162,1.90303,-0.2434577,-0.12480616,129.98909,2.8606997,0.3153017,0.2865605,0.16681543,0.10076658,inf,inf,inf,inf,1,1,1,1,3,5,3,3,4,1,1,1,0,0,0
802818334,802817498,40177334,41.1790555,-8.6035789,-4.7313337,-2.9720972,14.387584,0.008950949,-0.038369656,-1.5162039,-0.09098876,0.19544083,-0.17257233,-0.018259723,0.035676077,-0.046197742,-0.010773117,-1.1082256,-1.9897628,0.50477725,-0.2632675,-0.12480616,129.98909,2.8607607,0.32471636,0.291593,0.17493972,0.10257809,inf,inf,inf,inf,1,1,1,1,3,5,3,3,4,1,1,1,0,0,0
802918078,802916672,40177334,41.1790555,-8.6035789,-4.7381043,-2.9527967,14.39808,0.008950949,-0.038369656,-1.5162039,-0.07095839,0.19439185,-0.14783806,0.01659272,0.035676077,-0.046197742,-0.010773117,-0.38428938,-3.1677647,2.3305202,-0.27667555,-0.12480616,129.98909,2.8502645,0.3150886,0.286368,0.16796374,0.10073075,inf,inf,inf,inf,1,1,1,1,3,5,3,3,4,1,1,1,0,0,0
803016827,803015845,40177334,41.1790555,-8.6035789,-4.7432914,-2.933359,14.4008665,0.008950949,-0.038369656,-1.5162039,-0.040922184,0.19183591,-0.14363079,0.021040814,0.035676077,-0.046197742,-0.010773117,-0.48171476,-1.4607062,1.901196,-0.288372,-0.12480616,129.98909,2.847478,0.32457182,0.2913946,0.17576773,0.10254068,inf,inf,inf,inf,1,1,1,1,3,5,3,3,4,1,1,1,0,0,0
803125005,803124034,40177334,41.1790555,-8.6035789,-4.746152,-2.912484,14.409652,0.008950949,-0.038369656,-1.5162039,-0.026931087,0.17612088,-0.16001262,0.012628209,0.035676077,-0.046197742,-0.010773117,-0.009680647,-3.768791,-0.7300543,-0.30586755,-0.12480616,129.98909,2.8386927,0.3156703,0.28676972,0.16900072,0.10086961,inf,inf,inf,inf,1,1,1,1,3,5,3,3,4,1,1,1,0,0,0
803215772,803214193,40177334,41.1790555,-8.6035789,-4.7478166,-2.8955402,14.409933,0.008950949,-0.038369656,-1.5162039,-0.018163364,0.1664057,-0.17018639,0.0024193735,0.035676077,-0.046197742,-0.010773117,0.36932153,-1.1440685,1.4086518,-0.320742,-0.12480616,129.98909,2.8384113,0.32436693,0.29116246,0.1760449,0.10248774,inf,inf,inf,inf,1,1,1,1,3,5,3,3,4,1,1,1,0,0,0
803323254,803322381,40177334,41.1790555,-8.6035789,-4.7455354,-2.8782349,14.422322,0.008950949,-0.038369656,-1.5162039,-0.011366174,0.17204565,-0.16699567,0.017163543,0.035676077,-0.046197742,-0.010773117,-0.90096277,3.474715,3.036833,-0.3370296,-0.12480616,129.98909,2.8260221,0.31552586,0.28658313,0.16915555,0.10084951,inf,inf,inf,inf,1,1,1,1,3,5,3,3,4,1,1,1,0,0,0
803423336,803421555,40177334,41.1790555,-8.6035789,-4.743776,-2.8622968,14.426955,0.008950949,-0.038369656,-1.5162039,0.0035034681,0.17101434,-0.17686835,0.009560876,0.035676077,-0.046197742,-0.010773117,1.2993639,4.2694306,-1.2941751,-0.35182023,-0.12480616,129.98909,2.8213892,0.30649883,0.28148454,0.1614724,0.09900967,inf,inf,inf,inf,1,1,1,1,3,5,3,3,4,1,1,1,0,0,0
803517676,803511713,40177334,41.1790555,-8.6035789,-4.740471,-2.849865,14.436597,0.008950949,-0.038369656,-1.5162039,-0.006617561,0.14859769,-0.1758376,0.018616574,0.035676077,-0.046197742,-0.010773117,-0.85884535,-1.281156,2.5882468,-0.36855173,-0.12480616,129.98909,2.8117476,0.3145545,0.285788,0.16825242,0.10064373,inf,inf,inf,inf,1,1,1,1,3,5,3,3,4,1,1,1,0,0,0
803622778,803619902,40177334,41.1790555,-8.6035789,-4.737562,-2.835008,14.441374,0.008950949,-0.038369656,-1.5162039,-0.002500901,0.12871455,-0.1688409,0.025872309,0.035676077,-0.046197742,-0.010773117,-0.25449792,-4.37211,-1.7104328,-0.38994676,-0.12480616,129.98909,2.8069706,0.30633602,0.28132087,0.1611647,0.09900534,inf,inf,inf,inf,1,1,1,1,3,5,3,3,4,1,1,1,0,0,0
803719969,803719076,40177334,41.1790555,-8.6035789,-4.7322974,-2.8217027,14.450789,0.008950949,-0.038369656,-1.5162039,-0.005894561,0.13031715,-0.18664077,0.014439233,0.035676077,-0.046197742,-0.010773117,-0.26591563,-2.2268205,0.7755982,-0.40834588,-0.12480616,129.98909,2.797555,0.31527546,0.28624973,0.16843578,0.10083997,inf,inf,inf,inf,1,1,1,1,3,5,3,3,4,1,1,1,0,0,0
803821253,803818249,40177334,41.1790555,-8.6035789,-4.728216,-2.8096626,14.451002,0.008950949,-0.038369656,-1.5162039,-0.008061837,0.09379447,-0.21241866,-0.012571439,0.035676077,-0.046197742,-0.010773117,0.5620356,0.5923895,-1.7981217,-0.42586762,-0.12480616,129.98909,2.7973423,0.30618042,0.28117228,0.16072063,0.099004604,inf,inf,inf,inf,1,1,1,1,3,5,3,3,4,1,1,1,0,0,0
803919149,803917422,40177334,41.1790555,-8.6035789,-4.721737,-2.7999732,14.453352,0.008950949,-0.038369656,-1.5162039,0.01622358,0.09930774,-0.23405671,-0.0295129,0.035676077,-0.046197742,-0.010773117,0.95376736,2.8396788,0.80576026,-0.4409629,-0.12480616,129.98909,2.7949924,0.3151458,0.2860935,0.16796578,0.1008414,inf,inf,inf,inf,1,1,1,1,3,5,3,3,4,1,1,1,0,0,0
804017788,804016642,40177334,41.1790555,-8.6035789,-4.715523,-2.792155,14.443198,0.008950949,-0.038369656,-1.5162039,0.03755466,0.057345055,-0.28309417,-0.08443606,0.035676077,-0.046197742,-0.010773117,1.101028,0.67590195,-2.9962192,-0.4616259,-0.12480616,129.98909,2.8051462,0.3249086,0.29112762,0.17511177,0.10266158,inf,inf,inf,inf,1,1,1,1,3,5,3,3,4,1,1,1,0,0,0
804116715,804115770,40177334,41.1790555,-8.6035789,-4.704259,-2.7870252,14.440252,0.008950949,-0.038369656,-1.5162039,0.047314487,0.057208702,-0.2574284,-0.056527186,0.035676077,-0.046197742,-0.010773117,1.9321193,0.6114396,-0.41965833,-0.48438957,-0.12480616,129.98909,2.808092,0.31496078,0.2859177,0.16711132,0.100820996,inf,inf,inf,inf,1,1,1,1,3,5,3,3,4,1,1,1,0,0,0
804217469,804214943,40177334,41.1790555,-8.6035789,-4.693649,-2.7825813,14.427558,0.008950949,-0.038369656,-1.5162039,0.053908262,0.05182193,-0.26481712,-0.07099838,0.035676077,-0.046197742,-0.010773117,-0.5731918,-1.3245958,0.3577096,-0.50949717,-0.12480616,129.98909,2.8207865,0.32472628,0.2909474,0.17401,0.10264435,inf,inf,inf,inf,1,1,1,1,3,5,3,3,4,1,1,1,0,0,0
804323963,804323132,40177334,41.1790555,-8.6035789,-4.678551,-2.7782886,14.423799,0.008950949,-0.038369656,-1.5162039,0.0659228,0.030309726,-0.26644507,-0.069939785,0.035676077,-0.046197742,-0.010773117,0.25321564,-0.3566966,-1.612411,-0.5369457,-0.12480616,129.98909,2.8245459,0.31560373,0.2863677,0.16659898,0.100995935,inf,inf,inf,inf,1,1,1,1,3,5,3,3,4,1,1,1,0,0,0
804423841,804422351,40177334,41.1790555,-8.6035789,-4.6652923,-2.7742221,14.413948,0.008950949,-0.038369656,-1.5162039,0.08430788,0.03311261,-0.2580256,-0.06655926,0.035676077,-0.046197742,-0.010773117,1.6862864,-1.704125,-3.7942622,-0.5592981,-0.12480616,129.98909,2.8343964,0.30632994,0.28126043,0.15885267,0.09914119,inf,inf,inf,inf,1,1,1,1,3,5,3,3,4,1,1,1,0,0,0
804522579,804521480,40177334,41.1790555,-8.6035789,-4.6504774,-2.7716465,14.411913,0.008950949,-0.038369656,-1.5162039,0.079605915,0.02246279,-0.23946805,-0.0460861,0.035676077,-0.046197742,-0.010773117,-1.3210181,-2.5839875,-1.6763896,-0.581351,-0.12480616,129.98909,2.8364315,0.31538498,0.2861929,0.16544913,0.100974515,inf,inf,inf,inf,1,1,1,1,3,5,3,3,4,1,1,1,0,0,0
804621722,804620653,40177334,41.1790555,-8.6035789,-4.637182,-2.7684264,14.4025545,0.008950949,-0.038369656,-1.5162039,0.073982336,0.022136103,-0.22690675,-0.03908611,0.035676077,-0.046197742,-0.010773117,-2.368866,-4.5694604,0.787715,-0.60556126,-0.12480616,129.98909,2.84579,0.32520118,0.29123864,0.17210856,0.10279938,inf,inf,inf,inf,1,1,1,1,3,5,3,3,4,1,1,1,0,0,0
804720741,804719826,40177334,41.1790555,-8.6035789,-4.620812,-2.7675338,14.398293,0.008950949,-0.038369656,-1.5162039,0.07765697,0.0011698913,-0.27806637,-0.08917912,0.035676077,-0.046197742,-0.010773117,-0.08022571,-3.161528,-4.0071507,-0.63163686,-0.12480616,129.98909,2.8500519,0.31508616,0.28598788,0.16410431,0.10093812,inf,inf,inf,inf,1,1,1,1,3,5,3,3,4,1,1,1,0,0,0
804820080,804819000,40177334,41.1790555,-8.6035789,-4.6067867,-2.7675102,14.382209,0.008950949,-0.038369656,-1.5162039,0.067273214,0.011792571,-0.282889,-0.10160825,0.035676077,-0.046197742,-0.010773117,-2.2458088,-0.12660234,2.3226604,-0.65657014,-0.12480616,129.98909,2.8661356,0.3248791,0.29103386,0.17094478,0.102762006,inf,inf,inf,inf,1,1,1,1,3,5,3,3,4,1,1,1,0,0,0
804919257,804918219,40177334,41.1790555,-8.6035789,-4.5898566,-2.7696335,14.375082,0.008950949,-0.038369656,-1.5162039,0.07719363,0.010253882,-0.26642027,-0.08336342,0.035676077,-0.046197742,-0.010773117,-0.9280664,-0.86559105,0.38888258,-0.6808582,-0.12480616,129.98909,2.8732624,0.31481546,0.2857996,0.16304322,0.10090697,inf,inf,inf,inf,1,1,1,1,3,5,3,3,4,1,1,1,0,0,0
805019567,805017347,40177334,41.1790555,-8.6035789,-4.57599,-2.770525,14.36333,0.008950949,-0.038369656,-1.5162039,0.07190718,0.023786414,-0.23431519,-0.056534126,0.035676077,-0.046197742,-0.010773117,-0.8255638,-1.1873404,1.981831,-0.70418555,-0.12480616,129.98909,2.8850145,0.32458508,0.2908423,0.16941902,0.10272954,inf,inf,inf,inf,1,1,1,1,3,5,3,3,4,1,1,1,0,0,0
805117403,805116520,40177334,41.1790555,-8.6035789,-4.556441,-2.7699585,14.360302,0.008950949,-0.038369656,-1.5162039,0.06827189,0.015721068,-0.18951932,-0.010855285,0.035676077,-0.046197742,-0.010773117,-0.6370961,-3.5001354,-1.0798169,-0.72483593,-0.12480616,129.98909,2.8880424,0.3145518,0.28560743,0.1616263,0.10087284,inf,inf,inf,inf,1,1,1,1,3,5,3,3,4,1,1,1,0,0,0
805225779,805224709,40177334,41.1790555,-8.6035789,-4.539694,-2.7680883,14.359417,0.008950949,-0.038369656,-1.5162039,0.05789242,0.04507067,-0.06632676,0.10560721,0.035676077,-0.046197742,-0.010773117,-1.7955744,6.0200043,5.9228067,-0.7441567,-0.12480616,129.98909,2.8889275,0.3252031,0.29129118,0.16840455,0.1028901,inf,inf,inf,inf,1,1,1,1,3,5,3,3,4,1,1,1,0,0,0
805324792,805323929,40177334,41.1790555,-8.6035789,-4.5225325,-2.7681923,14.373109,0.008950949,-0.038369656,-1.5162039,0.052291825,0.012983069,-0.00168001,0.16991766,0.035676077,-0.046197742,-0.010773117,-2.5490148,-4.700339,1.4582405,-0.75950974,-0.12480616,129.98909,2.8752356,0.31504893,0.28600663,0.16032848,0.101012304,inf,inf,inf,inf,1,1,1,1,3,5,3,3,4,1,1,1,0,0,0
805424102,805423060,40177334,41.1790555,-8.6035789,-4.50918,-2.7682772,14.383624,0.008950949,-0.038369656,-1.5162039,0.056572825,0.01088876,-0.018876301,0.14704058,0.035676077,-0.046197742,-0.010773117,1.0090888,-0.21431397,0.32233515,-0.7707866,-0.12480616,129.98909,2.8647203,0.32478324,0.29106227,0.16650759,0.102838956,inf,inf,inf,inf,1,1,1,1,3,5,3,3,4,1,1,1,0,0,0
805523320,805522230,40177334,41.1790555,-8.6035789,-4.494273,-2.771982,14.396309,0.008950949,-0.038369656,-1.5162039,0.030657336,0.004482574,-0.001988668,0.16125119,0.035676077,-0.046197742,-0.010773117,-3.0219853,-4.3164506,2.7686253,-0.78569555,-0.12480616,129.98909,2.8520355,0.31469586,0.28578636,0.15912794,0.10096581,inf,inf,inf,inf,1,1,1,1,3,5,3,3,4,1,1,1,0,0,0
805622421,805621403,40177334,41.1790555,-8.6035789,-4.4838195,-2.774746,14.403864,0.008950949,-0.038369656,-1.5162039,0.022699378,0.0054369536,-0.036664728,0.120824724,0.035676077,-0.046197742,-0.010773117,-2.146329,-1.4907767,1.1417824,-0.80329996,-0.12480616,129.98909,2.8444805,0.32438806,0.2908372,0.16514425,0.102789864,inf,inf,inf,inf,1,1,1,1,3,5,3,3,4,1,1,1,0,0,0
805721622,805720577,40177334,41.1790555,-8.6035789,-4.4703135,-2.7776515,14.41935,0.008950949,-0.038369656,-1.5162039,0.028146062,0.004869022,-0.034529474,0.124680035,0.035676077,-0.046197742,-0.010773117,0.60404545,3.4344418,-1.2144862,-0.8215153,-0.12480616,129.98909,2.8289948,0.31434786,0.2855736,0.15787928,0.10092253,inf,inf,inf,inf,1,1,1,1,3,5,3,3,4,1,1,1,0,0,0
805821500,805819795,40177334,41.1790555,-8.6035789,-4.4607925,-2.780014,14.430893,0.008950949,-0.038369656,-1.5162039,0.021296486,0.012926425,-0.024448968,0.1324981,0.035676077,-0.046197742,-0.010773117,2.1064625,1.5085711,-1.0600023,-0.8426784,-0.12480616,129.98909,2.8174515,0.30514374,0.28137648,0.1510589,0.099217415,inf,inf,inf,inf,1,1,1,1,3,5,3,3,4,1,1,1,0,0,0
805924296,805918926,40177334,41.1790555,-8.6035789,-4.44924,-2.782955,14.444364,0.008950949,-0.038369656,-1.5162039,0.0206294,0.0025691655,-0.035661492,0.12190651,0.035676077,-0.046197742,-0.010773117,-2.5478623,-1.3268611,1.9069858,-0.8633188,-0.12480616,129.98909,2.8039808,0.31408876,0.28635767,0.15681422,0.10106011,inf,inf,inf,inf,1,1,1,1,3,5,3,3,4,1,1,1,0,0,0
806019005,806018097,40177334,41.1790555,-8.6035789,-4.4406633,-2.7848713,14.451697,0.008950949,-0.038369656,-1.5162039,0.016458482,0.007346979,-0.01109436,0.14064017,0.035676077,-0.046197742,-0.010773117,-3.2547705,-2.6777048,4.15282,-0.88693124,-0.12480616,129.98909,2.796647,0.32371214,0.29145724,0.16268903,0.10289646,inf,inf,inf,inf,1,1,1,1,3,5,3,3,4,1,1,1,0,0,0
806118616,806117270,40177334,41.1790555,-8.6035789,-4.430825,-2.7885792,14.463824,0.008950949,-0.038369656,-1.5162039,0.013766043,0.012442809,-0.043062348,0.108709395,0.035676077,-0.046197742,-0.010773117,1.1524929,1.889349,0.81184846,-0.91613877,-0.12480616,129.98909,2.7845201,0.3137242,0.2861654,0.15559055,0.10101957,inf,inf,inf,inf,1,1,1,1,3,5,3,3,4,1,1,1,0,0,0
806218678,806216445,40177334,41.1790555,-8.6035789,-4.4254045,-2.790921,14.469201,0.008950949,-0.038369656,-1.5162039,-0.010528932,0.013812673,-0.052513316,0.094183564,0.035676077,-0.046197742,-0.010773117,0.29291117,1.6316582,0.40731907,-0.9488078,-0.12480616,129.98909,2.7791433,0.32329825,0.2912563,0.161475,0.10285253,inf,inf,inf,inf,1,1,1,1,3,5,3,3,4,1,1,1,0,0,0
806325508,806324633,40177334,41.1790555,-8.6035789,-4.4190035,-2.7958105,14.481259,0.008950949,-0.038369656,-1.5162039,-0.028473968,0.019184284,-0.03338134,0.11394892,0.035676077,-0.046197742,-0.010773117,0.80653137,-0.9657983,0.95241237,-0.9845141,-0.12480616,129.98909,2.767085,0.3142029,0.2856522,0.15514806,0.10101572,inf,inf,inf,inf,1,1,1,1,3,5,3,3,4,1,1,1,0,0,0
806415550,806414790,40177334,41.1790555,-8.6035789,-4.4170184,-2.7979956,14.48611,0.008950949,-0.038369656,-1.5162039,-0.033820927,0.02444951,-0.028936235,0.11395254,0.035676077,-0.046197742,-0.010773117,-1.4304812,-1.2770786,3.1377518,-1.0157053,-0.12480616,129.98909,2.7622347,0.32289723,0.29106113,0.16030864,0.10281384,inf,inf,inf,inf,1,1,1,1,3,5,3,3,4,1,1,1,0,0,0
806523883,806522979,40177334,41.1790555,-8.6035789,-4.4172893,-2.8015077,14.495437,0.008950949,-0.038369656,-1.5162039,-0.053303055,0.029451191,-0.03802741,0.10334598,0.035676077,-0.046197742,-0.010773117,1.3802704,-1.3984215,0.41806695,-1.055281,-0.12480616,129.98909,2.7529078,0.31384596,0.28642336,0.15421742,0.1011443,inf,inf,inf,inf,1,1,1,1,3,5,3,3,4,1,1,1,0,0,0
806623546,806622153,40177334,41.1790555,-8.6035789,-4.4204535,-2.8023632,14.500536,0.008950949,-0.038369656,-1.5162039,-0.0807774,0.03806971,-0.036308818,0.099987864,0.035676077,-0.046197742,-0.010773117,-0.85403246,-1.8110298,-1.0533116,-1.0947021,-0.12480616,129.98909,2.7478085,0.304634,0.28126234,0.14779131,0.099270195,inf,inf,inf,inf,1,1,1,1,3,5,3,3,4,1,1,1,0,0,0
806713156,806712310,40177334,41.1790555,-8.6035789,-4.4225893,-2.8056512,14.50992,0.008950949,-0.038369656,-1.5162039,-0.091539904,0.049864236,-0.031599566,0.104535714,0.035676077,-0.046197742,-0.010773117,-0.20590693,0.82790947,-1.4075022,-1.1306748,-0.12480616,129.98909,2.7384243,0.31268588,0.28562784,0.15280312,0.10091872,inf,inf,inf,inf,1,1,1,1,3,5,3,3,4,1,1,1,0,0,0
806822374,806820499,40177334,41.1790555,-8.6035789,-4.4292583,-2.806532,14.519418,0.008950949,-0.038369656,-1.5162039,-0.10204431,0.067382984,-0.025219556,0.1089895,0.035676077,-0.046197742,-0.010773117,1.1818472,-0.2384779,0.0094044,-1.1763315,-0.12480616,129.98909,2.7289267,0.30436322,0.28111297,0.14705333,0.099244244,inf,inf,inf,inf,1,1,1,1,3,5,3,3,4,1,1,1,0,0,0
806920532,806919672,40177334,41.1790555,-8.6035789,-4.4364796,-2.8071177,14.528781,0.008950949,-0.038369656,-1.5162039,-0.11137278,0.0820248,-0.044591863,0.089662515,0.035676077,-0.046197742,-0.010773117,-0.33151105,2.0568006,2.238287,-1.2197691,-0.12480616,129.98909,2.7195635,0.3132214,0.28610447,0.15253799,0.10108634,inf,inf,inf,inf,1,1,1,1,3,5,3,3,4,1,1,1,0,0,0
807020187,807018846,40177334,41.1790555,-8.6035789,-4.4461093,-2.8045514,14.5351,0.008950949,-0.038369656,-1.5162039,-0.119856544,0.09069889,-0.0351152,0.09619245,0.035676077,-0.046197742,-0.010773117,-1.4421623,0.7730027,2.3749876,-1.2610074,-0.12480616,129.98909,2.7132444,0.30409163,0.28096116,0.1463916,0.09921551,inf,inf,inf,inf,1,1,1,1,3,5,3,3,4,1,1,1,0,0,0
807118839,807118019,40177334,41.1790555,-8.6035789,-4.457957,-2.8023508,14.546577,0.008950949,-0.038369656,-1.5162039,-0.15025158,0.095785834,-0.018007275,0.11390326,0.035676077,-0.046197742,-0.010773117,-4.813126,-1.6945075,2.343854,-1.3025264,-0.12480616,129.98909,2.701767,0.31292373,0.28595236,0.1518495,0.10105622,inf,inf,inf,inf,1,1,1,1,3,5,3,3,4,1,1,1,0,0,0
807218288,807217239,40177334,41.1790555,-8.6035789,-4.4713063,-2.796857,14.55177,0.008950949,-0.038369656,-1.5162039,-0.13232015,0.112934455,-0.026806122,0.09999621,0.035676077,-0.046197742,-0.010773117,-2.345648,-1.0585648,2.3036175,-1.345257,-0.12480616,129.98909,2.6965742,0.32237932,0.29105803,0.15745127,0.10288834,inf,inf,inf,inf,1,1,1,1,3,5,3,3,4,1,1,1,0,0,0
807327443,807325382,40177334,41.1790555,-8.6035789,-4.484971,-2.7918208,14.559189,0.008950949,-0.038369656,-1.5162039,-0.13391002,0.12555078,-0.031194204,0.0931371,0.035676077,-0.046197742,-0.010773117,-0.30983517,-2.1814532,0.14178415,-1.3881885,-0.12480616,129.98909,2.6891556,0.31337738,0.286408,0.15172255,0.10120465,inf,inf,inf,inf,1,1,1,1,3,5,3,3,4,1,1,1,0,0,0
807418083,807415539,40177334,41.1790555,-8.6035789,-4.4966125,-2.7845533,14.561929,0.008950949,-0.038369656,-1.5162039,-0.11987341,0.14147462,-0.05475097,0.065302566,0.035676077,-0.046197742,-0.010773117,2.325367,0.07615806,-0.8579352,-1.4243441,-0.12480616,129.98909,2.6864157,0.32196417,0.2908777,0.15676591,0.10283441,inf,inf,inf,inf,1,1,1,1,3,5,3,3,4,1,1,1,0,0,0
807524630,807523728,40177334,41.1790555,-8.6035789,-4.5107956,-2.775799,14.567658,0.008950949,-0.038369656,-1.5162039,-0.110871054,0.15325265,-0.05647159,0.06177771,0.035676077,-0.046197742,-0.010773117,2.6998458,1.5300323,-1.1846588,-1.4678749,-0.12480616,129.98909,2.680686,0.3129461,0.28619328,0.15103167,0.10112969,inf,inf,inf,inf,1,1,1,1,3,5,3,3,4,1,1,1,0,0,0
807614953,807613888,40177334,41.1790555,-8.6035789,-4.5236673,-2.766047,14.567062,0.008950949,-0.038369656,-1.5162039,-0.13055688,0.15985157,-0.07369216,0.039199125,0.035676077,-0.046197742,-0.010773117,-1.8583882,0.3795933,0.32974777,-1.5040524,-0.12480616,129.98909,2.681282,0.32149005,0.29065663,0.15607163,0.102755725,inf,inf,inf,inf,1,1,1,1,3,5,3,3,4,1,1,1,0,0,0
807722945,807722075,40177334,41.1790555,-8.6035789,-4.539995,-2.7542179,14.566914,0.008950949,-0.038369656,-1.5162039,-0.13613437,0.16664454,-0.082852855,0.026487391,0.035676077,-0.046197742,-0.010773117,0.9128717,-2.8571994,-2.0094533,-1.5461385,-0.12480616,129.98909,2.6814308,0.3126045,0.28599924,0.15059438,0.101080805,inf,inf,inf,inf,1,1,1,1,3,5,3,3,4,1,1,1,0,0,0
807813220,807812232,40177334,41.1790555,-8.6035789,-4.5544777,-2.7424068,14.560345,0.008950949,-0.038369656,-1.5162039,-0.15443963,0.17545572,-0.0923634,0.009564515,0.035676077,-0.046197742,-0.010773117,-4.39299,0.39590153,1.8746486,-1.5792639,-0.12480616,129.98909,2.6879997,0.3211191,0.2904624,0.15559074,0.102711536,inf,inf,inf,inf,1,1,1,1,3,5,3,3,4,1,1,1,0,0,0
807922144,807920421,40177334,41.1790555,-8.6035789,-4.5750446,-2.7268178,14.555137,0.008950949,-0.038369656,-1.5162039,-0.14742585,0.18046622,-0.09705595,-0.0010475201,0.035676077,-0.046197742,-0.010773117,3.1159568,-0.9363297,-1.9461125,-1.6152345,-0.12480616,129.98909,2.6932077,0.3122902,0.28579944,0.15012614,0.10103571,inf,inf,inf,inf,1,1,1,1,3,5,3,3,4,1,1,1,0,0,0
808025487,808019595,40177334,41.1790555,-8.6035789,-4.593481,-2.710652,14.547532,0.008950949,-0.038369656,-1.5162039,-0.14759189,0.18645352,-0.09496266,-0.0069342377,0.035676077,-0.046197742,-0.010773117,2.7773485,-0.13121355,0.14967677,-1.6468309,-0.12480616,129.98909,2.7008123,0.30327758,0.28057456,0.14428094,0.09914995,inf,inf,inf,inf,1,1,1,1,3,5,3,3,4,1,1,1,0,0,0
808119833,808118813,40177334,41.1790555,-8.6035789,-4.6113734,-2.6948185,14.539859,0.008950949,-0.038369656,-1.5162039,-0.15658003,0.17954215,-0.116603784,-0.035327617,0.035676077,-0.046197742,-0.010773117,-2.8608592,0.14847414,-0.2366982,-1.6797512,-0.12480616,129.98909,2.7084856,0.3120004,0.28556514,0.14962944,0.10098487,inf,inf,inf,inf,1,1,1,1,3,5,3,3,4,1,1,1,0,0,0
808221063,808217941,40177334,41.1790555,-8.6035789,-4.628054,-2.6776032,14.526447,0.008950949,-0.038369656,-1.5162039,-0.12646924,0.18839535,-0.10650278,-0.03485645,0.035676077,-0.046197742,-0.010773117,3.1581602,1.7281618,1.491152,-1.710579,-0.12480616,129.98909,2.7218971,0.32132894,0.29066783,0.15512328,0.10280855,inf,inf,inf,inf,1,1,1,1,3,5,3,3,4,1,1,1,0,0,0
808318093,808317117,40177334,41.1790555,-8.6035789,-4.6453266,-2.663099,14.516386,0.008950949,-0.038369656,-1.5162039,-0.125633,0.18542467,-0.10797685,-0.041578647,0.035676077,-0.046197742,-0.010773117,-1.9961797,1.7939198,-0.7346264,-1.73945,-0.12480616,129.98909,2.7319584,0.31165802,0.2852911,0.14910543,0.100910895,inf,inf,inf,inf,1,1,1,1,3,5,3,3,4,1,1,1,0,0,0
808417745,808416288,40177334,41.1790555,-8.6035789,-4.659483,-2.646948,14.50576,0.008950949,-0.038369656,-1.5162039,-0.07254146,0.18595114,-0.072997585,-0.013916313,0.035676077,-0.046197742,-0.010773117,4.703605,0.9358885,0.25519505,-1.7685047,-0.12480616,129.98909,2.7425842,0.32094976,0.29039338,0.154485,0.10273272,inf,inf,inf,inf,1,1,1,1,3,5,3,3,4,1,1,1,0,0,0
808517627,808515461,40177334,41.1790555,-8.6035789,-4.6708226,-2.6283429,14.49798,0.008950949,-0.038369656,-1.5162039,-0.052906554,0.19114047,-0.055259865,-0.0027658478,0.035676077,-0.046197742,-0.010773117,-0.46189582,0.75113815,0.06496337,-1.7992752,-0.12480616,129.98909,2.7503643,0.3113434,0.28503275,0.14839703,0.10084036,inf,inf,inf,inf,1,1,1,1,3,5,3,3,4,1,1,1,0,0,0
808624529,808623650,40177334,41.1790555,-8.6035789,-4.6784487,-2.6087902,14.492049,0.008950949,-0.038369656,-1.5162039,-0.021604218,0.18051836,-0.054443926,-0.0068283654,0.035676077,-0.046197742,-0.010773117,-1.4298847,0.29471132,1.4023451,-1.8338169,-0.12480616,129.98909,2.7562952,0.3214574,0.29077575,0.15425664,0.102855094,inf,inf,inf,inf,1,1,1,1,3,5,3,3,4,1,1,1,0,0,0
808723700,808722823,40177334,41.1790555,-8.6035789,-4.6814184,-2.5908794,14.489348,0.008950949,-0.038369656,-1.5162039,0.03739886,0.16720784,-0.033383306,0.011849274,0.035676077,-0.046197742,-0.010773117,2.882987,-0.6914068,-0.022337452,-1.8664762,-0.12480616,129.98909,2.758996,0.3116301,0.28529775,0.14812388,0.10090469,inf,inf,inf,inf,1,1,1,1,3,5,3,3,4,1,1,1,0,0,0
808823845,808821996,40177334,41.1790555,-8.6035789,-4.6807117,-2.573553,14.487072,0.008950949,-0.038369656,-1.5162039,0.05330436,0.16516443,-0.05497236,-0.0117660845,0.035676077,-0.046197742,-0.010773117,-1.919559,-0.4530826,-0.6292108,-1.8995951,-0.12480616,129.98909,2.7612724,0.32086337,0.29040092,0.15342283,0.102720544,inf,inf,inf,inf,1,1,1,1,3,5,3,3,4,1,1,1,0,0,0
808922192,808921173,40177334,41.1790555,-8.6035789,-4.6793647,-2.552034,14.4857235,0.008950949,-0.038369656,-1.5162039,0.094944455,0.16450907,-0.043217115,-0.0004939566,0.035676077,-0.046197742,-0.010773117,3.1183703,-0.15866211,-0.072035186,-1.9370167,-0.12480616,129.98909,2.762621,0.31132388,0.28502905,0.14774805,0.100830324,inf,inf,inf,inf,1,1,1,1,3,5,3,3,4,1,1,1,0,0,0
809021544,809020388,40177334,41.1790555,-8.6035789,-4.674468,-2.5321302,14.4856205,0.008950949,-0.038369656,-1.5162039,0.106238306,0.16059183,-0.021270107,0.020184938,0.035676077,-0.046197742,-0.010773117,1.5031677,-0.58856505,2.2408261,-1.9754087,-0.12480616,129.98909,2.762724,0.3205212,0.29013097,0.15304819,0.10265001,inf,inf,inf,inf,1,1,1,1,3,5,3,3,4,1,1,1,0,0,0
809121435,809119516,40177334,41.1790555,-8.6035789,-4.669256,-2.5129445,14.487734,0.008950949,-0.038369656,-1.5162039,0.115029864,0.15315299,-0.010522154,0.03189878,0.035676077,-0.046197742,-0.010773117,-3.396396,2.6037376,2.0060968,-2.0143223,-0.12480616,129.98909,2.7606106,0.31106377,0.28477576,0.14724365,0.10076993,inf,inf,inf,inf,1,1,1,1,3,5,3,3,4,1,1,1,0,0,0
809219536,809218689,40177334,41.1790555,-8.6035789,-4.661326,-2.49655,14.490361,0.008950949,-0.038369656,-1.5162039,0.14010309,0.12239124,-0.013519715,0.02978607,0.035676077,-0.046197742,-0.010773117,-0.075822815,0.4166473,-0.06338558,-2.053977,-0.12480616,129.98909,2.7579832,0.3202216,0.28987068,0.15255938,0.10259219,inf,inf,inf,inf,1,1,1,1,3,5,3,3,4,1,1,1,0,0,0
809318785,809317863,40177334,41.1790555,-8.6035789,-4.652058,-2.4793158,14.492968,0.008950949,-0.038369656,-1.5162039,0.1456868,0.11825229,-0.000914562,0.043075215,0.035676077,-0.046197742,-0.010773117,2.550656,0.8115391,0.63692987,-2.0957828,-0.12480616,129.98909,2.7553768,0.3108184,0.28453752,0.1468505,0.10071835,inf,inf,inf,inf,1,1,1,1,3,5,3,3,4,1,1,1,0,0,0
809428926,809426097,40177334,41.1790555,-8.6035789,-4.6392255,-2.4627812,14.498159,0.008950949,-0.038369656,-1.5162039,0.16638838,0.10116355,-0.0029620202,0.04118912,0.035676077,-0.046197742,-0.010773117,3.2529283,-1.1020697,-1.5000079,-2.1433573,-0.12480616,129.98909,2.750185,0.30280027,0.27993336,0.14180557,0.09903169,inf,inf,inf,inf,1,1,1,1,3,5,3,3,4,1,1,1,0,0,0
809517131,809516255,40177334,41.1790555,-8.6035789,-4.624408,-2.4478185,14.500358,0.008950949,-0.038369656,-1.5162039,0.1693813,0.09796695,-0.008858839,0.034612805,0.035676077,-0.046197742,-0.010773117,1.4498461,2.7939596,0.76962173,-2.183766,-0.12480616,129.98909,2.7479868,0.31056637,0.28429842,0.14654203,0.1006718,inf,inf,inf,inf,1,1,1,1,3,5,3,3,4,1,1,1,0,0,0
809616948,809615382,40177334,41.1790555,-8.6035789,-4.606724,-2.43404,14.503826,0.008950949,-0.038369656,-1.5162039,0.17806889,0.07747758,-0.006050669,0.037197098,0.035676077,-0.046197742,-0.010773117,1.7166834,-0.51062006,-0.4552405,-2.2275224,-0.12480616,129.98909,2.7445183,0.31965974,0.28938758,0.15173835,0.1024963,inf,inf,inf,inf,1,1,1,1,3,5,3,3,4,1,1,1,0,0,0
809724370,809723571,40177334,41.1790555,-8.6035789,-4.583715,-2.4182868,14.506417,0.008950949,-0.038369656,-1.5162039,0.19176207,0.06359749,-0.016212668,0.027383145,0.035676077,-0.046197742,-0.010773117,-0.8467447,0.75956774,0.8908057,-2.2743979,-0.12480616,129.98909,2.7419271,0.3111082,0.28468728,0.1467121,0.10082555,inf,inf,inf,inf,1,1,1,1,3,5,3,3,4,1,1,1,0,0,0
809819535,809813729,40177334,41.1790555,-8.6035789,-4.562668,-2.4074793,14.507819,0.008950949,-0.038369656,-1.5162039,0.22420026,0.060250804,-0.026224138,0.017042484,0.035676077,-0.046197742,-0.010773117,1.246928,2.8219612,1.2984506,-2.310843,-0.12480616,129.98909,2.7405252,0.3016391,0.27888328,0.14092588,0.0987776,inf,inf,inf,inf,1,1,1,1,3,5,3,3,4,1,1,1,0,0,0
809922759,809921963,40177334,41.1790555,-8.6035789,-4.5334063,-2.394292,14.508043,0.008950949,-0.038369656,-1.5162039,0.24869087,0.06343216,-0.015170472,0.02699469,0.035676077,-0.046197742,-0.010773117,0.6194997,0.9954168,1.904775,-2.3566055,-0.12480616,129.98909,2.7403011,0.31091332,0.2844823,0.14660974,0.10080543,inf,inf,inf,inf,1,1,1,1,3,5,3,3,4,1,1,1,0,0,0
810022434,810021091,40177334,41.1790555,-8.6035789,-4.505063,-2.383984,14.507425,0.008950949,-0.038369656,-1.5162039,0.25650394,0.05776951,0.0051845796,0.04409506,0.035676077,-0.046197742,-0.010773117,-1.4248728,2.0452545,1.9495893,-2.398711,-0.12480616,129.98909,2.740919,0.30215827,0.27924788,0.14118767,0.09892681,inf,inf,inf,inf,1,1,1,1,3,5,3,3,4,1,1,1,0,0,0
810121345,810120264,40177334,41.1790555,-8.6035789,-4.4723563,-2.3749197,14.507878,0.008950949,-0.038369656,-1.5162039,0.2632149,0.04202997,0.008129509,0.042704873,0.035676077,-0.046197742,-0.010773117,-1.3061659,4.011661,0.2575354,-2.4426773,-0.12480616,129.98909,2.740466,0.31065586,0.28423306,0.14622384,0.100761436,inf,inf,inf,inf,1,1,1,1,3,5,3,3,4,1,1,1,0,0,0
810222326,810219437,40177334,41.1790555,-8.6035789,-4.441606,-2.3682003,14.507487,0.008950949,-0.038369656,-1.5162039,0.25796074,0.028303316,0.017192068,0.047784608,0.035676077,-0.046197742,-0.010773117,-3.8760347,3.3121989,1.4916683,-2.4879985,-0.12480616,129.98909,2.7408571,0.30192074,0.27900964,0.14084056,0.09888933,inf,inf,inf,inf,1,1,1,1,3,5,3,3,4,1,1,1,0,0,0
810319551,810318610,40177334,41.1790555,-8.6035789,-4.4098654,-2.3634992,14.505982,0.008950949,-0.038369656,-1.5162039,0.27912563,-0.0012267918,0.008344718,0.03422493,0.035676077,-0.046197742,-0.010773117,-0.37466457,-1.8500819,0.29079995,-2.5311627,-0.12480616,129.98909,2.742362,0.31039447,0.2839967,0.14593242,0.10072873,inf,inf,inf,inf,1,1,1,1,3,5,3,3,4,1,1,1,0,0,0
810420103,810417829,40177334,41.1790555,-8.6035789,-4.377478,-2.3614724,14.503974,0.008950949,-0.038369656,-1.5162039,0.30608794,-0.01633051,-0.0021346442,0.018453255,0.035676077,-0.046197742,-0.010773117,0.7686577,-1.3384699,-0.06147881,-2.5733032,-0.12480616,129.98909,2.7443705,0.31943482,0.28910032,0.1510967,0.10255427,inf,inf,inf,inf,1,1,1,1,3,5,3,3,4,1,1,1,0,0,0
810517839,810516957,40177334,41.1790555,-8.6035789,-4.3416567,-2.3594573,14.498232,0.008950949,-0.038369656,-1.5162039,0.30138737,-0.028820135,0.0017188597,0.015585573,0.035676077,-0.046197742,-0.010773117,1.34096,-3.046242,-0.22759221,-2.6150422,-0.12480616,129.98909,2.7501125,0.31005666,0.28372478,0.14569773,0.100672096,inf,inf,inf,inf,1,1,1,1,3,5,3,3,4,1,1,1,0,0,0
810617038,810616130,40177334,41.1790555,-8.6035789,-4.3068056,-2.360636,14.493811,0.008950949,-0.038369656,-1.5162039,0.30485067,-0.04456817,0.019257128,0.026403034,0.035676077,-0.046197742,-0.010773117,0.03265143,0.18420972,-0.8221952,-2.6574564,-0.12480616,129.98909,2.7545338,0.31906432,0.2888236,0.15085332,0.10249875,inf,inf,inf,inf,1,1,1,1,3,5,3,3,4,1,1,1,0,0,0
810725894,810724320,40177334,41.1790555,-8.6035789,-4.2665915,-2.3643782,14.485579,0.008950949,-0.038369656,-1.5162039,0.26905936,-0.07228919,-0.009007671,-0.010032353,0.035676077,-0.046197742,-0.010773117,-2.5094488,1.9220226,-1.9354472,-2.7032802,-0.12480616,129.98909,2.762766,0.310535,0.28409278,0.14579104,0.10081883,inf,inf,inf,inf,1,1,1,1,3,5,3,3,4,1,1,1,0,0,0
810824858,810823538,40177334,41.1790555,-8.6035789,-4.233477,-2.3703623,14.476114,0.008950949,-0.038369656,-1.5162039,0.25758612,-0.10434063,-0.030837938,-0.038760398,0.035676077,-0.046197742,-0.010773117,0.41728213,-4.2618833,-0.4161463,-2.74186,-0.12480616,129.98909,2.7722301,0.30180636,0.2788426,0.14053935,0.09893783,inf,inf,inf,inf,1,1,1,1,3,5,3,3,4,1,1,1,0,0,0
810923630,810922665,40177334,41.1790555,-8.6035789,-4.199359,-2.3777413,14.46617,0.008950949,-0.038369656,-1.5162039,0.2441741,-0.120291315,-0.018506719,-0.032869115,0.035676077,-0.046197742,-0.010773117,0.14777493,3.2035413,0.072782345,-2.768385,-0.12480616,129.98909,2.782174,0.31024337,0.2838411,0.14564103,0.10077839,inf,inf,inf,inf,1,1,1,1,3,5,3,3,4,1,1,1,0,0,0
811023278,811021838,40177334,41.1790555,-8.6035789,-4.168611,-2.3885329,14.456118,0.008950949,-0.038369656,-1.5162039,0.23363198,-0.1373445,-0.006042006,-0.027272172,0.035676077,-0.046197742,-0.010773117,1.0792867,3.04026,0.4199722,-2.7825155,-0.12480616,129.98909,2.7922268,0.30156505,0.27861658,0.14029314,0.09890177,inf,inf,inf,inf,1,1,1,1,3,5,3,3,4,1,1,1,0,0,0
811121965,811121012,40177334,41.1790555,-8.6035789,-4.133698,-2.4038317,14.444257,0.008950949,-0.038369656,-1.5162039,0.21640694,-0.17048159,0.0038321484,-0.02566098,0.035676077,-0.046197742,-0.010773117,-0.4667218,-3.7791734,-0.5325183,-2.7926803,-0.12480616,129.98909,2.8040876,0.30997628,0.2836117,0.14527535,0.10074151,inf,inf,inf,inf,1,1,1,1,3,5,3,3,4,1,1,1,0,0,0
811221016,811220185,40177334,41.1790555,-8.6035789,-4.1042643,-2.4206107,14.433796,0.008950949,-0.038369656,-1.5162039,0.18085319,-0.17004353,-0.012057419,-0.048022956,0.035676077,-0.046197742,-0.010773117,-2.3588605,2.517148,0.22990498,-2.7977743,-0.12480616,129.98909,2.8145485,0.3189444,0.28872168,0.1504183,0.10257039,inf,inf,inf,inf,1,1,1,1,3,5,3,3,4,1,1,1,0,0,0
811320623,811319403,40177334,41.1790555,-8.6035789,-4.073855,-2.4411218,14.420786,0.008950949,-0.038369656,-1.5162039,0.17109995,-0.18711145,-0.0124634905,-0.055701133,0.035676077,-0.046197742,-0.010773117,0.18713914,-1.1509594,0.3834594,-2.801538,-0.12480616,129.98909,2.8275585,0.3096825,0.28335425,0.14498158,0.10068671,inf,inf,inf,inf,1,1,1,1,3,5,3,3,4,1,1,1,0,0,0
811419434,811418531,40177334,41.1790555,-8.6035789,-4.0500736,-2.4612215,14.40899,0.008950949,-0.038369656,-1.5162039,0.12799984,-0.19784403,-0.02167512,-0.069874585,0.035676077,-0.046197742,-0.010773117,-1.237193,-3.8658125,-3.1933413,-2.8022223,-0.12480616,129.98909,2.8393545,0.31862333,0.28846052,0.15007257,0.102511056,inf,inf,inf,inf,1,1,1,1,3,5,3,3,4,1,1,1,0,0,0
811518550,811517705,40177334,41.1790555,-8.6035789,-4.0259137,-2.484592,14.396876,0.008950949,-0.038369656,-1.5162039,0.10875811,-0.17193419,0.011612946,-0.04191496,0.035676077,-0.046197742,-0.010773117,-0.29218248,4.259047,2.4891517,-2.8009326,-0.12480616,129.98909,2.851468,0.3094402,0.28311545,0.14472406,0.10063478,inf,inf,inf,inf,1,1,1,1,3,5,3,3,4,1,1,1,0,0,0
811617842,811616878,40177334,41.1790555,-8.6035789,-4.006138,-2.5062516,14.387861,0.008950949,-0.038369656,-1.5162039,0.104752496,-0.19698444,-0.012596264,-0.06822664,0.035676077,-0.046197742,-0.010773117,0.68314046,-3.5999472,-1.0255555,-2.7971313,-0.12480616,129.98909,2.8604832,0.31835303,0.28821945,0.1496668,0.10245777,inf,inf,inf,inf,1,1,1,1,3,5,3,3,4,1,1,1,0,0,0
811726234,811725113,40177334,41.1790555,-8.6035789,-3.9800227,-2.5364237,14.376833,0.008950949,-0.038369656,-1.5162039,0.11480042,-0.17082864,-0.0047378438,-0.06338644,0.035676077,-0.046197742,-0.010773117,1.6911377,-3.054703,1.2461201,-2.790868,-0.12480616,129.98909,2.8715115,0.30993012,0.2834794,0.14459579,0.10075612,inf,inf,inf,inf,1,1,1,1,3,5,3,3,4,1,1,1,0,0,0
811817241,811815270,40177334,41.1790555,-8.6035789,-3.9598122,-2.5589495,14.367496,0.008950949,-0.038369656,-1.5162039,0.12892406,-0.14158937,-0.018188963,-0.078467056,0.035676077,-0.046197742,-0.010773117,1.47006,4.207698,2.0383823,-2.790833,-0.12480616,129.98909,2.880849,0.31802797,0.2879492,0.14907609,0.10237922,inf,inf,inf,inf,1,1,1,1,3,5,3,3,4,1,1,1,0,0,0
811924431,811923413,40177334,41.1790555,-8.6035789,-3.936164,-2.5894735,14.351181,0.008950949,-0.038369656,-1.5162039,0.13165718,-0.13133809,-0.06293765,-0.12720782,0.035676077,-0.046197742,-0.010773117,2.1807318,-1.3276392,0.9167544,-2.79473,-0.12480616,129.98909,2.8971634,0.30958575,0.2829787,0.14407088,0.10063963,inf,inf,inf,inf,1,1,1,1,3,5,3,3,4,1,1,1,0,0,0
812023526,812022590,40177334,41.1790555,-8.6035789,-3.9168534,-2.61277,14.330541,0.008950949,-0.038369656,-1.5162039,0.13140161,-0.12645634,-0.08607614,-0.15450619,0.035676077,-0.046197742,-0.010773117,1.0479053,-4.3394,1.8612667,-2.7982576,-0.12480616,129.98909,2.9178038,0.31849664,0.28809425,0.14903593,0.10245908,inf,inf,inf,inf,1,1,1,1,3,5,3,3,4,1,1,1,0,0,0
812122774,812121759,40177334,41.1790555,-8.6035789,-3.896524,-2.6417627,14.310332,0.008950949,-0.038369656,-1.5162039,0.162804,-0.16401769,-0.08235321,-0.15453266,0.035676077,-0.046197742,-0.010773117,3.3152564,-1.619543,0.80341315,-2.7973778,-0.12480616,129.98909,2.9380121,0.30922246,0.2824679,0.14361458,0.1005302,inf,inf,inf,inf,1,1,1,1,3,5,3,3,4,1,1,1,0,0,0
812221837,812220979,40177334,41.1790555,-8.6035789,-3.8748996,-2.6695807,14.293918,0.008950949,-0.038369656,-1.5162039,0.17936397,-0.17232984,-0.028183563,-0.1039644,0.035676077,-0.046197742,-0.010773117,0.19303943,1.1770555,-1.598447,-2.7963576,-0.12480616,129.98909,2.9544268,0.31811014,0.287578,0.14829655,0.10235002,inf,inf,inf,inf,1,1,1,1,3,5,3,3,4,1,1,1,0,0,0
812321119,812320105,40177334,41.1790555,-8.6035789,-3.851134,-2.704546,14.27839,0.008950949,-0.038369656,-1.5162039,0.21337987,-0.21766816,-0.003690512,-0.08483922,0.035676077,-0.046197742,-0.010773117,0.89793426,-3.3247478,-0.63703716,-2.7919097,-0.12480616,129.98909,2.9699545,0.30886903,0.28199205,0.14275932,0.10043011,inf,inf,inf,inf,1,1,1,1,3,5,3,3,4,1,1,1,0,0,0
812421102,812419278,40177334,41.1790555,-8.6035789,-3.8255599,-2.739375,14.266527,0.008950949,-0.038369656,-1.5162039,0.24924257,-0.23462671,-0.019293537,-0.10227746,0.035676077,-0.046197742,-0.010773117,-0.7048361,1.7252332,1.1424779,-2.7915995,-0.12480616,129.98909,2.9818172,0.30029202,0.27660695,0.13745202,0.09853595,inf,inf,inf,inf,1,1,1,1,3,5,3,3,4,1,1,1,0,0,0
812519205,812518451,40177334,41.1790555,-8.6035789,-3.799662,-2.7785094,14.253342,0.008950949,-0.038369656,-1.5162039,0.28463972,-0.25028548,-0.0043073306,-0.089626096,0.035676077,-0.046197742,-0.010773117,2.623825,0.0979187,0.41083452,-2.7891343,-0.12480616,129.98909,2.9950027,0.30859447,0.28159764,0.14208695,0.10037006,inf,inf,inf,inf,1,1,1,1,3,5,3,3,4,1,1,1,0,0,0
812618615,812617625,40177334,41.1790555,-8.6035789,-3.7713156,-2.8151724,14.244658,0.008950949,-0.038369656,-1.5162039,0.28883544,-0.25369856,0.02232779,-0.06245813,0.035676077,-0.046197742,-0.010773117,-0.5734859,1.2530575,1.5540243,-2.783393,-0.12480616,129.98909,3.003686,0.3174333,0.28670478,0.14667587,0.102189735,inf,inf,inf,inf,1,1,1,1,3,5,3,3,4,1,1,1,0,0,0
812717902,812716843,40177334,41.1790555,-8.6035789,-3.7420573,-2.856246,14.236976,0.008950949,-0.038369656,-1.5162039,0.31133166,-0.27900425,0.01904462,-0.06575777,0.035676077,-0.046197742,-0.010773117,-1.138669,-4.543836,-2.8526983,-2.7807417,-0.12480616,129.98909,3.0113688,0.30825314,0.28119108,0.1413218,0.10029445,inf,inf,inf,inf,1,1,1,1,3,5,3,3,4,1,1,1,0,0,0
812827124,812824987,40177334,41.1790555,-8.6035789,-3.7079136,-2.896335,14.231442,0.008950949,-0.038369656,-1.5162039,0.3293347,-0.2575453,-0.004238952,-0.08630236,0.035676077,-0.046197742,-0.010773117,-0.6988954,1.8130034,-1.1696721,-2.7857244,-0.12480616,129.98909,3.016902,0.30038476,0.27643815,0.13655972,0.098589845,inf,inf,inf,inf,1,1,1,1,3,5,3,3,4,1,1,1,0,0,0
812926625,812924159,40177334,41.1790555,-8.6035789,-3.677846,-2.9331527,14.222476,0.008950949,-0.038369656,-1.5162039,0.3557122,-0.25069728,-0.006932359,-0.08778931,0.035676077,-0.046197742,-0.010773117,-2.2053623,0.502223,-0.820393,-2.7877667,-0.12480616,129.98909,3.0258684,0.30869302,0.28144574,0.14114463,0.100424066,inf,inf,inf,inf,1,1,1,1,3,5,3,3,4,1,1,1,0,0,0
813016714,813014319,40177334,41.1790555,-8.6035789,-3.647864,-2.9643345,14.217025,0.008950949,-0.038369656,-1.5162039,0.38102758,-0.2788823,-0.0055891904,-0.08317588,0.035676077,-0.046197742,-0.010773117,1.2581005,-3.760596,1.1515058,-2.7857513,-0.12480616,129.98909,3.0313196,0.31670594,0.28592655,0.14527757,0.102049515,inf,inf,inf,inf,1,1,1,1,3,5,3,3,4,1,1,1,0,0,0
813123428,813122551,40177334,41.1790555,-8.6035789,-3.6099932,-3.0126424,14.208982,0.008950949,-0.038369656,-1.5162039,0.3952369,-0.30729258,-0.027607234,-0.10233077,0.035676077,-0.046197742,-0.010773117,-1.8678051,-1.6349856,-0.6156003,-2.789331,-0.12480616,129.98909,3.039362,0.30836332,0.2811007,0.1405323,0.10036548,inf,inf,inf,inf,1,1,1,1,3,5,3,3,4,1,1,1,0,0,0
813223511,813221679,40177334,41.1790555,-8.6035789,-3.5729978,-3.0541475,14.199317,0.008950949,-0.038369656,-1.5162039,0.41234216,-0.32170436,-0.06627807,-0.1388117,0.035676077,-0.046197742,-0.010773117,2.4324293,-3.926052,-2.5069852,-2.789012,-0.12480616,129.98909,3.0490274,0.29976687,0.27577132,0.13547373,0.09848023,inf,inf,inf,inf,1,1,1,1,3,5,3,3,4,1,1,1,0,0,0
813321743,813320852,40177334,41.1790555,-8.6035789,-3.5371838,-3.0914516,14.184734,0.008950949,-0.038369656,-1.5162039,0.43224558,-0.29416865,-0.034888897,-0.108542815,0.035676077,-0.046197742,-0.010773117,1.8920127,-0.4918145,3.5663362,-2.787351,-0.12480616,129.98909,3.06361,0.3080414,0.2807782,0.13998935,0.10031105,inf,inf,inf,inf,1,1,1,1,3,5,3,3,4,1,1,1,0,0,0
813421009,813420025,40177334,41.1790555,-8.6035789,-3.5002587,-3.123119,14.170308,0.008950949,-0.038369656,-1.5162039,0.41548103,-0.23700014,-0.06274174,-0.13745336,0.035676077,-0.046197742,-0.010773117,-0.004404533,3.8289766,-1.1934625,-2.7828908,-0.12480616,129.98909,3.0780363,0.31683776,0.2858996,0.14442343,0.102129206,inf,inf,inf,inf,1,1,1,1,3,5,3,3,4,1,1,1,0,0,0
813520176,813519198,40177334,41.1790555,-8.6035789,-3.463417,-3.1544955,14.150604,0.008950949,-0.038369656,-1.5162039,0.42637917,-0.15100873,-0.08188761,-0.16120428,0.035676077,-0.046197742,-0.010773117,3.2209973,-0.93600076,0.13689998,-2.7787216,-0.12480616,129.98909,3.0977402,0.3076552,0.28043395,0.13944907,0.100235604,inf,inf,inf,inf,1,1,1,1,3,5,3,3,4,1,1,1,0,0,0
813619747,813618419,40177334,41.1790555,-8.6035789,-3.427035,-3.1732,14.128551,0.008950949,-0.038369656,-1.5162039,0.3999793,-0.059372,-0.090203606,-0.17527907,0.035676077,-0.046197742,-0.010773117,-0.8061528,1.5400434,1.1636013,-2.7792735,-0.12480616,129.98909,3.119794,0.31642497,0.28555688,0.14407535,0.10205144,inf,inf,inf,inf,1,1,1,1,3,5,3,3,4,1,1,1,0,0,0
813718435,813717544,40177334,41.1790555,-8.6035789,-3.3947234,-3.188933,14.1015215,0.008950949,-0.038369656,-1.5162039,0.37969178,0.0008764355,-0.09642928,-0.18968719,0.035676077,-0.046197742,-0.010773117,0.7152826,-1.3675017,-1.3899854,-2.7824948,-0.12480616,129.98909,3.146823,0.30727887,0.28011134,0.13911247,0.100161955,inf,inf,inf,inf,1,1,1,1,3,5,3,3,4,1,1,1,0,0,0
813818510,813816717,40177334,41.1790555,-8.6035789,-3.3630295,-3.1958444,14.074868,0.008950949,-0.038369656,-1.5162039,0.35769546,0.044416323,-0.09361519,-0.19392838,0.035676077,-0.046197742,-0.010773117,-0.8519357,-0.90417516,-0.10034955,-2.7887206,-0.12480616,129.98909,3.1734762,0.31602237,0.28522918,0.14383957,0.10197558,inf,inf,inf,inf,1,1,1,1,3,5,3,3,4,1,1,1,0,0,0
813916872,813915890,40177334,41.1790555,-8.6035789,-3.334637,-3.2043836,14.052911,0.008950949,-0.038369656,-1.5162039,0.33641627,0.08599829,-0.045795985,-0.14950544,0.035676077,-0.046197742,-0.010773117,-0.0651179,0.32794625,1.0335891,-2.791017,-0.12480616,129.98909,3.1954336,0.30693787,0.27980635,0.13880566,0.10009483,inf,inf,inf,inf,1,1,1,1,3,5,3,3,4,1,1,1,0,0,0
814025490,814024125,40177334,41.1790555,-8.6035789,-3.3031538,-3.2050512,14.039105,0.008950949,-0.038369656,-1.5162039,0.33250996,0.12706417,0.013044475,-0.08986905,0.035676077,-0.046197742,-0.010773117,-2.2674768,-0.11540235,2.3700469,-2.7933993,-0.12480616,129.98909,3.209239,0.3164749,0.28556585,0.14368309,0.10210667,inf,inf,inf,inf,1,1,1,1,3,5,3,3,4,1,1,1,0,0,0
814116704,814114282,40177334,41.1790555,-8.6035789,-3.280003,-3.2077272,14.033408,0.008950949,-0.038369656,-1.5162039,0.33838108,0.14971787,0.024035834,-0.07688412,0.035676077,-0.046197742,-0.010773117,-2.3030005,-0.6290749,-1.4941337,-2.7949414,-0.12480616,129.98909,3.2149363,0.3065598,0.28037018,0.13822053,0.10016833,inf,inf,inf,inf,1,1,1,1,3,5,3,3,4,1,1,1,0,0,0
814223508,814222425,40177334,41.1790555,-8.6035789,-3.2515328,-3.2030516,14.028826,0.008950949,-0.038369656,-1.5162039,0.31862113,0.17491011,-0.0030347744,-0.09820819,0.035676077,-0.046197742,-0.010773117,-1.1442612,0.2780832,-0.91109896,-2.7972534,-0.12480616,129.98909,3.2195187,0.31605902,0.28523916,0.14308779,0.10202705,inf,inf,inf,inf,1,1,1,1,3,5,3,3,4,1,1,1,0,0,0
814322708,814321598,40177334,41.1790555,-8.6035789,-3.2314847,-3.1978586,14.022436,0.008950949,-0.038369656,-1.5162039,0.29493487,0.19564144,-0.0054971827,-0.09558486,0.035676077,-0.046197742,-0.010773117,-2.1420026,-1.6720186,0.67144305,-2.8013783,-0.12480616,129.98909,3.2259083,0.306981,0.27979952,0.138237,0.100137554,inf,inf,inf,inf,1,1,1,1,3,5,3,3,4,1,1,1,0,0,0
814422006,814420771,40177334,41.1790555,-8.6035789,-3.210475,-3.186991,14.015368,0.008950949,-0.038369656,-1.5162039,0.2839967,0.20658267,-0.031261075,-0.11632917,0.035676077,-0.046197742,-0.010773117,1.3674407,0.068716414,-0.16822328,-2.8038955,-0.12480616,129.98909,3.232976,0.31568295,0.28492722,0.14279069,0.10195291,inf,inf,inf,inf,1,1,1,1,3,5,3,3,4,1,1,1,0,0,0
814522334,814519990,40177334,41.1790555,-8.6035789,-3.1950886,-3.1781664,14.010855,0.008950949,-0.038369656,-1.5162039,0.2397111,0.19742931,0.0012123546,-0.07763403,0.035676077,-0.046197742,-0.010773117,-2.36806,2.0639713,1.8793557,-2.8028786,-0.12480616,129.98909,3.2374897,0.30665842,0.27950484,0.13778661,0.1000668,inf,inf,inf,inf,1,1,1,1,3,5,3,3,4,1,1,1,0,0,0
814619988,814619118,40177334,41.1790555,-8.6035789,-3.1790547,-3.168192,14.008778,0.008950949,-0.038369656,-1.5162039,0.24203697,0.14406055,-0.008758989,-0.081155896,0.035676077,-0.046197742,-0.010773117,2.3551483,-3.4139159,-0.2283747,-2.8050117,-0.12480616,129.98909,3.2395668,0.3153411,0.2846358,0.14207909,0.10188216,inf,inf,inf,inf,1,1,1,1,3,5,3,3,4,1,1,1,0,0,0
814719616,814718290,40177334,41.1790555,-8.6035789,-3.1654928,-3.1650958,14.005216,0.008950949,-0.038369656,-1.5162039,0.23416051,0.08320652,-0.03519892,-0.10228217,0.035676077,-0.046197742,-0.010773117,0.024903692,2.59566,-2.242291,-2.8067849,-0.12480616,129.98909,3.2431288,0.30630293,0.28009102,0.13698779,0.1001309,inf,inf,inf,inf,1,1,1,1,3,5,3,3,4,1,1,1,0,0,0
814818322,814817463,40177334,41.1790555,-8.6035789,-3.1478608,-3.1694906,14.002231,0.008950949,-0.038369656,-1.5162039,0.28272542,-0.047406517,-0.014136213,-0.07511058,0.035676077,-0.046197742,-0.010773117,2.3688037,-2.4567246,0.8911336,-2.8087094,-0.12480616,129.98909,3.2461138,0.31494886,0.28526473,0.14124809,0.10194978,inf,inf,inf,inf,1,1,1,1,3,5,3,3,4,1,1,1,0,0,0
814917539,814916636,40177334,41.1790555,-8.6035789,-3.1282067,-3.1895714,14.002013,0.008950949,-0.038369656,-1.5162039,0.32625648,-0.22391011,-0.009218588,-0.062308587,0.035676077,-0.046197742,-0.010773117,0.5744723,0.9689387,3.903723,-2.8058236,-0.12480616,129.98909,3.2463312,0.30603802,0.27983618,0.13614807,0.100045994,inf,inf,inf,inf,1,1,1,1,3,5,3,3,4,1,1,1,0,0,0
815025874,815024824,40177334,41.1790555,-8.6035789,-3.0972226,-3.2335436,14.005565,0.008950949,-0.038369656,-1.5162039,0.41287866,-0.4948278,-0.037745543,-0.07856691,0.035676077,-0.046197742,-0.010773117,3.5027227,-3.3056786,-0.70452684,-2.8019495,-0.12480616,129.98909,3.2427797,0.29844213,0.27432704,0.1319377,0.0981857,inf,inf,inf,inf,1,1,1,1,3,5,3,3,4,1,1,1,0,0,0
815120384,815114982,40177334,41.1790555,-8.6035789,-3.0689802,-3.2893584,14.012938,0.008950949,-0.038369656,-1.5162039,0.45651177,-0.70423317,0.008902047,-0.01922899,0.035676077,-0.046197742,-0.010773117,1.9073764,-5.2959037,0.29808828,-2.7949982,-0.12480616,129.98909,3.2354069,0.30583492,0.27961332,0.13600543,0.0999162,inf,inf,inf,inf,1,1,1,1,3,5,3,3,4,1,1,1,0,0,0
815225760,815223170,40177334,41.1790555,-8.6035789,-3.027793,-3.3744876,14.030544,0.008950949,-0.038369656,-1.5162039,0.49444252,-0.8966514,0.078248456,0.06651129,0.035676077,-0.046197742,-0.010773117,1.3754326,-4.806824,1.1715719,-2.7822003,-0.12480616,129.98909,3.2178001,0.29821646,0.27409506,0.13227715,0.09803033,inf,inf,inf,inf,1,1,1,1,3,5,3,3,4,1,1,1,0,0,0
815323212,815322343,40177334,41.1790555,-8.6035789,-2.9844425,-3.4589572,14.054313,0.008950949,-0.038369656,-1.5162039,0.5185414,-1.0070981,0.121235356,0.12404119,0.035676077,-0.046197742,-0.010773117,-2.472008,-4.568741,-0.83407545,-2.7764444,-0.12480616,129.98909,3.1940317,0.30633456,0.28000015,0.13696538,0.09997112,inf,inf,inf,inf,1,1,1,1,3,5,3,3,4,1,1,1,0,0,0
815423322,815421562,40177334,41.1790555,-8.6035789,-2.9353251,-3.55361,14.07992,0.008950949,-0.038369656,-1.5162039,0.5334292,-1.0458548,0.11731327,0.13267471,0.035676077,-0.046197742,-0.010773117,-3.360849,0.93594885,1.895362,-2.7740123,-0.12480616,129.98909,3.1684246,0.29799286,0.27470082,0.13270856,0.09808345,inf,inf,inf,inf,1,1,1,1,3,5,3,3,4,1,1,1,0,0,0
815521603,815520689,40177334,41.1790555,-8.6035789,-2.8821766,-3.6414144,14.099338,0.008950949,-0.038369656,-1.5162039,0.529029,-1.0365331,0.061374597,0.084505506,0.035676077,-0.046197742,-0.010773117,-3.1138158,0.3818369,-1.2022074,-2.7735736,-0.12480616,129.98909,3.1490068,0.3060912,0.27976206,0.13721538,0.099910714,inf,inf,inf,inf,1,1,1,1,3,5,3,3,4,1,1,1,0,0,0
815622816,815619862,40177334,41.1790555,-8.6035789,-2.8297954,-3.7289424,14.110528,0.008950949,-0.038369656,-1.5162039,0.49836966,-0.96932006,0.011516769,0.038947657,0.035676077,-0.046197742,-0.010773117,1.28599,-2.3988054,-0.12513182,-2.775964,-0.12480616,129.98909,3.1378164,0.29777154,0.2744761,0.1326106,0.09803832,inf,inf,inf,inf,1,1,1,1,3,5,3,3,4,1,1,1,0,0,0
815720009,815719035,40177334,41.1790555,-8.6035789,-2.7766054,-3.8061416,14.113205,0.008950949,-0.038369656,-1.5162039,0.43284887,-0.8212862,-0.009343458,0.016564306,0.035676077,-0.046197742,-0.010773117,-3.316086,3.0086944,0.3928879,-2.7808843,-0.12480616,129.98909,3.1351395,0.30587882,0.27953494,0.13678418,0.099857844,inf,inf,inf,inf,1,1,1,1,3,5,3,3,4,1,1,1,0,0,0
